participant,session,condition,trialType,posture,blockNum,trialNum,switchTrialType,congruantTrialType,cueType,shapeType,shapeColor,response,correctResponse,correct,reactionTime,date,utcTime,jointHeadDisplacement,jointTorsoDisplacement,jointNeckDisplacement,jointLeftShoulderDisplacement,jointRightShoulderDisplacement,jointLeftElbowDisplacement,jointRightElbowDisplacement,jointLeftHandDisplacement,jointRightHandDisplacement,jointLeftHipDisplacement,jointRightHipDisplacement,jointLeftKneeDisplacement,jointRightKneeDisplacement,jointLeftFootDisplacement,jointRightFootDisplacement
1,1,1,experiment,standing,1,1,buffer,buffer,solid,square,blue,right,left,no,0.9088129997253418,2021-11-10 10:22:00,1636561737.1790671,70.43440558282988,70.44506633655203,52.580553103979774,79.39661596659364,52.150620950848655,79.39525437031432,50.30111892906505,79.39554365186325,21.07417505197255,115.52602106335439,105.29543696343211,115.52492704028053,105.29737103254591,115.52868489156563,0.0
1,1,1,experiment,standing,1,2,noswitch,congruant,solid,square,blue,left,left,yes,0.5947349071502686,2021-11-10 10:22:00,1636561744.1281517,82.11950071851999,78.81394934874194,62.937462788808666,91.01934531778724,63.229121791279354,91.02062326735472,42.48606455366417,91.02198158952815,22.300278005538487,124.5169436058746,116.02875856695498,278.0335678580528,306.4328233366691,409.6210166444954,0.0
1,1,1,experiment,standing,1,3,switch,incongruant,dashed,square,blue,right,right,yes,0.7084870338439941,2021-11-10 10:22:00,1636561746.1949935,85.91598891875032,70.12319822873144,61.54297172042596,87.90270050528997,63.62920136788914,87.89947293608827,1.2913255796194447,87.90080633428472,20.400882699066436,114.90483850284753,106.8487360504173,119.63719229849794,111.39965051576237,140.04258835345738,0.0
1,1,1,experiment,standing,1,4,noswitch,congruant,dashed,square,blue,right,right,yes,0.5995199680328369,2021-11-10 10:22:00,1636561748.139821,70.47141917621784,67.4586289656629,51.414097349323356,72.21582893756232,54.12350169625864,72.21720793260775,1.4455721881991725,72.21789195170177,22.028440176716398,109.20764200005308,104.33434496308453,109.20753137362642,104.3337144238944,109.21531926401771,0.0
1,1,1,experiment,standing,1,5,noswitch,congruant,dashed,square,yellow,right,right,yes,0.4399409294128418,2021-11-10 10:22:00,1636561749.9110022,81.52825222256519,71.92727788449324,57.905785315969304,87.2124305138682,66.53571674444142,87.21141818237089,1.4295247722459425,87.21097340414096,24.160455755311485,114.24871959482176,112.34282570080607,114.24642013090042,112.34297358708622,114.2432938080034,0.0
1,1,1,experiment,standing,1,6,noswitch,congruant,dashed,square,yellow,right,right,yes,0.38472580909729,2021-11-10 10:22:00,1636561751.62303,83.41608871016066,67.47123407435112,58.91161849174994,83.28770139468641,57.441129349543544,83.28695421197263,1.6100755232230588,83.28507610328873,21.68545250093194,108.54033356532996,99.00378446849956,108.54246883367503,99.0057223076272,108.54040431411717,0.0
1,1,1,experiment,standing,1,7,switch,incongruant,solid,triangle,blue,left,left,yes,0.4641029834747314,2021-11-10 10:22:00,1636561753.4547527,83.89101667839523,71.71773816808675,58.94537808684872,83.88638194742556,67.86330005700982,83.88665564557526,1.466256956485693,83.88635455078695,28.769564404895565,116.99624759761475,106.24454652614475,116.99584589392677,106.24381533218916,116.9974885979246,0.0
1,1,1,experiment,standing,1,8,noswitch,incongruant,solid,square,yellow,right,right,yes,0.2919869422912597,2021-11-10 10:22:00,1636561755.1092012,75.9580941294482,69.71692870367573,56.30148367249615,82.96929899263819,54.723942580292274,82.96842541888853,1.4436291042045866,82.97006490734888,24.796379502930876,112.12777848007434,101.70373942419226,112.12809246039686,101.70302380288241,112.12730473433128,0.0
1,1,1,experiment,standing,1,9,switch,congruant,dashed,square,yellow,right,right,yes,0.3981409072875976,2021-11-10 10:22:00,1636561756.879166,66.63350257760027,59.165242077207196,50.479729754555066,75.94137769179622,49.500201129088765,75.9413755734642,1.6836684953689487,75.9419998695105,24.14400423431345,96.12821263215574,87.93033246919244,96.12451338315108,87.92733001580673,96.12682487858523,0.0
1,1,1,experiment,standing,1,10,noswitch,congruant,dashed,square,blue,right,right,yes,0.6441290378570557,2021-11-10 10:22:00,1636561758.8879952,62.548098201784185,60.031533337882315,45.275725912125665,66.61825382447843,56.54276802358263,66.61821990340829,1.609758550949035,66.61833985979632,21.349751251695725,99.82956135767557,97.06447005592572,99.83053211741108,97.06424100825838,99.8308022440979,0.0
1,1,1,experiment,standing,1,11,noswitch,congruant,dashed,square,blue,right,right,yes,0.4062240123748779,2021-11-10 10:22:00,1636561760.6586635,75.01772974487122,62.01045634571661,51.28897497152683,70.22765963013613,55.932574915613785,70.22991310184078,1.8312786644961863,70.22791830864048,20.77935486384,96.55176740973629,93.28312773704977,96.55368516041295,93.28425575087593,96.55363605268938,0.0
1,1,1,experiment,standing,1,12,switch,incongruant,solid,triangle,blue,left,left,yes,0.55538010597229,2021-11-10 10:22:00,1636561762.5475094,74.91539426052309,63.548113044857686,51.43264124611642,75.89788063582829,56.13579501948949,75.89434427277625,1.5760074257649281,75.89464464258417,18.304717279316574,104.36835815436694,95.17042079666898,104.368834803179,95.17082677291835,104.36920967559932,0.0
1,1,1,experiment,standing,1,13,noswitch,congruant,solid,triangle,blue,left,left,yes,0.5672109127044678,2021-11-10 10:22:00,1636561764.4361224,88.1285344192352,69.86084544192981,61.83432449070124,83.35019706619816,70.61099491691142,83.3516137452938,1.4973375221441798,83.34961628874899,22.92029404759207,111.77805486735782,103.72417053040702,111.77746363324538,103.7246586680144,111.77824411631974,0.0
1,1,1,experiment,standing,1,14,switch,congruant,dashed,triangle,yellow,left,left,yes,0.595412015914917,2021-11-10 10:22:00,1636561766.3863475,66.51506913118617,66.96692370420305,51.65248752960813,70.64756427402581,55.393146959037175,70.64858737154705,1.7147477058274905,70.64681956220294,26.68616774665477,102.44145852362266,102.00055933248701,102.43877193256928,102.00032881018174,102.43997376682063,0.0
1,1,1,experiment,standing,1,15,noswitch,congruant,dashed,triangle,blue,left,left,yes,1.1515820026397705,2021-11-10 10:22:00,1636561768.86718,78.40466292415901,69.76316470712581,58.505811967530946,80.12206846223778,63.5634940228345,80.12371925205652,1.6102954720763225,80.12449273650346,22.216373131645533,110.47559705178399,103.08612248272823,110.4762543758741,103.08546245196491,110.47554637423194,0.0
1,1,1,experiment,standing,1,16,noswitch,incongruant,dashed,square,yellow,right,right,yes,0.5277268886566162,2021-11-10 10:22:00,1636561770.7590306,74.19059073709792,72.73451918335996,61.912944942457685,75.60580946485447,64.11471815236926,75.60623943126656,1.8011317773493574,75.60754213452016,21.92990789132312,99.48050630948518,95.75483015793337,99.48154724705046,95.7531147847051,99.48081951245999,0.0
1,1,1,experiment,standing,1,19,switch,incongruant,dashed,triangle,blue,left,left,yes,1.083976984024048,2021-11-10 10:22:00,1636561788.6607623,69.89331412885642,67.61561886209181,50.80720792579435,77.29195535260999,51.64552239188465,77.29135743474417,1.4604065168147478,77.28898830789547,27.51907761989413,113.46393138379439,102.12240778675907,113.46255028366248,102.12113733913803,113.45856692458457,0.0
1,1,1,experiment,standing,1,20,switch,congruant,solid,square,blue,right,left,no,0.6902868747711182,2021-11-10 10:22:00,1636561790.7282128,78.61526644664133,74.9256949956513,60.8118084539262,79.75294149178798,63.891962601640984,79.75102432181757,1.5705868018122562,79.75092063992241,20.54158740329772,115.65634166113412,109.29183732371756,115.65575252869247,109.29150981264242,115.65702393324527,0.0
1,1,1,experiment,standing,1,22,switch,incongruant,solid,square,yellow,right,right,yes,0.5158069133758545,2021-11-10 10:22:00,1636561805.3881624,69.07447993297124,67.44817335434644,50.103030552751804,69.42579897741348,51.17476548369625,69.42511737704072,51.19899246016188,69.4233918329492,21.279428169781944,110.04542651632171,103.11910079339596,110.04729053075977,103.11981358126567,110.05423726578162,0.0
1,1,1,experiment,standing,1,23,switch,incongruant,dashed,triangle,yellow,left,left,yes,0.627094030380249,2021-11-10 10:22:00,1636561807.3360507,68.80418857485671,69.6247055507096,53.34795218968203,72.52133805632498,53.06235172840162,72.52245139569334,56.788964619143144,72.52369337518218,21.227658694300207,107.52717607170743,100.21210658403555,107.5253283757942,100.2121522601519,107.52713006624705,0.0
1,1,1,experiment,standing,1,24,switch,incongruant,solid,square,yellow,right,right,yes,0.6092419624328613,2021-11-10 10:22:00,1636561809.2876415,80.88744719320292,67.27354532068614,57.260562788475944,74.59330478313278,61.00572944979173,74.59394362049709,57.823006338357295,74.5937717016851,21.692112901998478,108.92327027245315,106.982538410828,108.92126501656244,106.98162775252078,108.9227984983383,0.0
1,1,1,experiment,standing,1,25,switch,incongruant,dashed,triangle,blue,left,left,yes,0.8300001621246338,2021-11-10 10:22:00,1636561811.4764357,64.6231247083994,65.16423646471618,49.0444772268794,66.08384878484489,48.63306879295383,66.08580367498803,52.78429097564446,66.08452654116543,23.62053775264819,103.74560904756,98.1801191235749,285.045675654349,317.9311426968652,459.3415737579375,0.0
1,1,1,experiment,standing,1,26,switch,incongruant,solid,triangle,yellow,right,right,yes,0.510948896408081,2021-11-10 10:22:00,1636561813.3691957,71.87694675627105,74.6608847954436,56.61617073704397,75.30936770997181,54.35841878915833,75.30621635808856,53.259496640000684,75.30774514416704,22.319237516806933,115.83912307475546,110.32167727393518,157.6901426856884,152.70196574110008,222.21407757118217,0.0
1,1,1,experiment,standing,1,27,switch,incongruant,dashed,triangle,blue,left,left,yes,0.5243198871612549,2021-11-10 10:22:00,1636561815.2614267,70.83401540341141,67.38058561352868,55.558193390003645,78.39945680932256,50.82390744763713,78.39821976545959,41.15528984582984,78.39733597165262,23.810395254857713,105.8214963619561,93.57442175951884,105.82333134718318,93.57418853393071,105.84471845794019,0.0
1,1,1,experiment,standing,1,28,noswitch,incongruant,dashed,square,blue,right,right,yes,0.4763360023498535,2021-11-10 10:22:00,1636561817.09525,83.11310705963875,62.068087894663364,53.87323818657102,69.98743597069664,56.95030355405369,69.98872045117528,1.8442915196398588,69.98819931367008,20.927320794555282,103.46531603006832,101.44277494990578,103.46493976181036,101.44256676490193,103.46520619956966,0.0
1,1,1,experiment,standing,1,29,switch,congruant,solid,triangle,yellow,right,right,yes,0.6579949855804443,2021-11-10 10:22:00,1636561819.1031158,77.39055078124343,67.80288215133797,55.35206195375057,77.08363222418232,56.07087108189313,77.08454883175699,1.9696945780712645,77.08349689933354,20.41950581582585,107.18104131252367,100.07663517163576,107.18091949763023,100.07733806331885,107.1817439746664,0.0
1,1,1,experiment,standing,1,30,noswitch,incongruant,solid,triangle,blue,left,left,yes,0.438060998916626,2021-11-10 10:22:00,1636561820.875648,82.39467887769803,74.48968405267217,60.01671835048901,82.0285433591905,63.145589036739075,82.02655197692118,1.483744692007557,82.02709474420166,27.0341634414075,118.62006639244566,111.52195152148583,118.62270707588637,111.52149606121704,118.62073391402215,0.0
1,1,1,experiment,standing,1,31,switch,congruant,dashed,triangle,yellow,left,left,yes,0.3776650428771972,2021-11-10 10:22:00,1636561822.5879862,74.67572059921314,61.39203805150267,52.44512833039119,69.77615777687427,52.79963770249299,69.77782441714027,1.7752140981544593,69.77509967248818,21.951750928579443,99.6054129074233,92.59134927954038,99.604442903331,92.59339761856882,99.6041646501017,0.0
1,1,1,experiment,standing,1,32,noswitch,incongruant,dashed,square,yellow,right,right,yes,0.680729866027832,2021-11-10 10:22:00,1636561824.6562614,71.44636593275642,60.96705566120108,51.45841985147392,70.09972396079436,51.20976627650724,70.09920110516546,1.5856767024265666,70.09896506836853,21.2187786639212,97.2725565198572,90.00431983829931,97.27400664433925,90.0045602491076,97.27217417417899,0.0
1,1,1,experiment,standing,1,33,switch,congruant,solid,triangle,yellow,right,right,yes,0.5053868293762207,2021-11-10 10:22:00,1636561826.4857872,75.54773635619965,72.45439441494779,58.27172329302095,75.89987841113404,55.06745219519349,75.89648613598315,1.9406894767154428,75.8989895432107,26.866738160067474,107.68120188285774,103.88109499288147,107.6830514125537,103.88176314092426,107.679322839821,0.0
1,1,1,experiment,standing,1,34,noswitch,congruant,solid,triangle,yellow,right,right,yes,0.6477999687194824,2021-11-10 10:22:00,1636561828.4941642,75.15618488596617,61.28232950253716,51.14266874600003,73.02323019695766,53.028852624485594,73.023501590569,1.7250795648351673,73.02302998060622,23.279985528334088,103.73805849281925,97.69877545397526,103.73885603939358,97.69743641691946,103.73954142122408,0.0
1,1,1,experiment,standing,1,35,switch,incongruant,dashed,triangle,blue,left,left,yes,0.7487850189208984,2021-11-10 10:22:00,1636561830.5609598,71.71176690074523,70.15884326835848,54.925846705766205,84.13215321798681,54.6166226483992,84.13301131795095,1.5962812140267473,84.13024733611006,23.699130144794637,115.9832966053228,100.34625643632539,115.98492655986907,100.34645424327988,115.98218598560331,0.0
1,1,1,experiment,standing,1,36,switch,incongruant,solid,square,yellow,right,right,yes,0.8563470840454102,2021-11-10 10:22:00,1636561832.7458172,68.12978168869422,65.89483858772222,50.940503654007074,68.16800182531841,53.134089531282854,68.16888570928576,43.4494064783615,68.16536505480109,24.015891611572794,104.7072447335987,99.9910454748432,104.70564798927391,99.9906558778413,104.70799421012386,0.0
1,1,1,experiment,standing,1,37,noswitch,incongruant,solid,square,blue,left,left,yes,1.092216968536377,2021-11-10 10:22:00,1636561835.1689143,76.14183877637639,68.59486760556672,56.58747475455675,75.77211209589701,56.960396642192656,75.77236293539912,32.105346675239836,75.77179124225769,22.327485618109144,112.2491059226593,105.94886038870222,373.05405573786464,399.7071996661666,634.4920632591945,0.0
1,1,1,experiment,standing,1,38,noswitch,incongruant,solid,triangle,yellow,right,right,yes,0.7904999256134033,2021-11-10 10:22:00,1636561837.2953875,76.28570008376792,72.73455797530113,56.975604514903104,82.44691518540345,53.48524699883755,82.44794879858927,1.721501222797485,82.44742643464895,20.68046581765001,122.19713115796387,108.52599773538782,122.19820248535848,108.53006443290384,122.15296350118503,0.0
1,1,1,experiment,standing,1,39,noswitch,incongruant,solid,triangle,blue,left,left,yes,0.4217410087585449,2021-11-10 10:22:00,1636561839.0715208,63.39400824502594,61.757944191693014,48.374057073795385,67.52519895454797,49.15570322649107,67.5219570412066,1.55782521869418,67.5215045635382,18.084355793313886,97.21669869652241,92.54636843524949,97.21515444243443,92.5447285827033,97.22351211697844,0.0
1,1,1,experiment,standing,1,40,noswitch,incongruant,solid,square,yellow,right,right,yes,0.5859959125518799,2021-11-10 10:22:00,1636561841.0211515,78.10061049245095,73.95072302848801,57.96484500543955,91.22548754818737,55.340503515304945,91.22689808772064,1.3203727172317958,91.22449759942343,23.528906865400117,125.67033507363065,107.34404163125186,125.67084732913852,107.34343911432242,125.67032679728163,0.0
1,1,1,experiment,standing,1,41,switch,congruant,dashed,square,yellow,right,right,yes,0.7687389850616455,2021-11-10 10:22:00,1636561843.1450176,72.53894154070348,71.5243292193148,53.97006075162119,80.04106313263564,58.04903779420379,80.0402096683566,1.6837413848366434,80.03881677352082,24.39186678821717,116.55718026428262,110.1782399034,116.55717160542004,110.17924836747291,116.55660690166582,0.0
1,1,1,experiment,standing,1,42,noswitch,congruant,dashed,square,blue,right,right,yes,0.5280640125274658,2021-11-10 10:22:00,1636561845.0358682,66.47178271498424,71.5350760826882,46.82605629519903,71.87275887814492,45.29939456010741,71.8714908912157,1.5104228876716865,71.87179986418573,25.078489942554654,123.89240766266619,115.3947391494432,123.89234697867622,115.39478115692884,123.891815795779,0.0
1,1,1,experiment,standing,1,43,switch,congruant,solid,square,yellow,right,right,yes,0.7229390144348145,2021-11-10 10:22:00,1636561847.1041064,75.87224096087478,72.27204596662277,53.13578011958018,78.97454301233654,57.12775662676336,78.97276711706655,1.3117863784331798,78.97242262615667,29.253014282677945,122.99614040385154,111.82017385131974,122.99392554813707,111.81967870242056,122.99337488574669,0.0
1,1,1,experiment,standing,1,44,noswitch,incongruant,solid,square,blue,right,left,no,0.6177389621734619,2021-11-10 10:22:00,1636561849.0527363,86.42489228522811,77.61017007230257,66.18734983745341,90.21707453781119,64.00119948854143,90.21498680741405,1.490206941530181,90.21591418762203,23.172958597915784,122.13073313008522,109.5915828110703,122.13111539517219,109.59061215505342,122.13070538758714,0.0
1,1,1,experiment,standing,1,45,noswitch,congruant,solid,square,blue,left,left,yes,1.4588608741760254,2021-11-10 10:22:00,1636561856.8266144,69.61096385805244,69.52731734620379,53.10890541650996,71.42317172002812,50.990586589494384,71.423780268251,47.4886955933661,71.42388868916683,22.753121341063057,108.20715270324834,102.85188430077451,108.20799181727253,102.85165362623903,108.20148437220448,0.0
1,1,1,experiment,standing,1,46,switch,congruant,dashed,triangle,yellow,left,left,yes,0.5210740566253662,2021-11-10 10:22:00,1636561858.6565504,70.69576118117472,72.8489612872749,54.5563100485861,75.17536836295746,53.24500647599617,75.17460037973537,51.946885654644035,75.1781477990201,19.660583948644167,114.31366113093397,108.22542124182611,276.96611665132593,289.6647953797101,444.6642258239732,0.0
1,1,1,experiment,standing,1,47,noswitch,congruant,dashed,triangle,yellow,left,left,yes,0.4004201889038086,2021-11-10 10:22:00,1636561860.3680089,63.02019814051116,60.66352636181314,46.10774499059164,76.16306788566781,41.06978292051609,76.16367553943317,57.7369367936115,76.16535114665162,22.572781915121766,103.8070502325573,92.44602713588105,103.8084341110289,92.4352811236867,103.8127046192103,0.0
1,1,1,experiment,standing,1,48,noswitch,congruant,dashed,triangle,blue,left,left,yes,0.4413750171661377,2021-11-10 10:22:00,1636561862.1410365,82.66814373127076,69.0636023041034,60.23853874231818,79.31926450540291,62.39290450507257,79.3168993471327,54.420057497249836,79.31654947613346,20.871103013577002,109.52980568151817,103.86305466445845,109.52907666323112,103.86375824534834,109.52936246029098,0.0
1,1,1,experiment,standing,1,49,switch,congruant,solid,square,blue,left,left,yes,0.4061441421508789,2021-11-10 10:22:00,1636561863.9132836,74.53375694421143,57.46600770256322,51.17179508045303,69.7828418520869,57.18143609916018,69.78443940546634,45.945210787923,69.78214319291345,22.031276724114996,89.30918119691788,86.32174637504758,89.31114453485782,86.32306334059234,89.31152045142147,0.0
1,1,1,experiment,standing,2,1,buffer,buffer,dashed,square,yellow,right,right,yes,0.7839510440826416,2021-11-10 10:22:00,1636561917.388801,43.86252898892286,49.520942362502055,33.479117288860344,57.14024130565696,31.85341288572047,57.13821773336377,32.32831638796645,57.136799972481825,24.529593189055092,84.36991120320867,71.29179285831631,84.37042858569828,71.29269741182242,84.37771264317688,0.0
1,1,1,experiment,standing,2,2,switch,congruant,solid,triangle,yellow,right,right,yes,1.0284171104431152,2021-11-10 10:22:00,1636561919.7517018,36.6086866682694,42.441396451707526,28.88636606457,43.90759072982106,27.95355783608998,43.908846262824426,31.86785524393871,43.910197248952386,23.707823729494876,69.01848850133538,63.65378991440991,69.01824036567575,63.65592647381255,69.0168815035068,0.0
1,1,1,experiment,standing,2,3,switch,congruant,dashed,square,yellow,right,right,yes,0.9222869873046876,2021-11-10 10:22:00,1636561922.0577283,40.0475240903069,51.46132424982425,32.41304055691403,51.003208756667384,29.992479952925816,51.00189859217034,40.21230070990112,51.001916242964256,25.08298501109654,86.0157821886044,77.06486220093862,86.01703898488257,77.06416442750316,86.01599422776758,0.0
1,1,1,experiment,standing,2,4,noswitch,congruant,dashed,square,blue,right,right,yes,0.4736409187316894,2021-11-10 10:22:00,1636561923.8867726,46.87047775543254,48.30554880218849,34.539413631160656,54.28887606031258,30.137593594570127,54.289988565712065,42.206589804269136,54.28725534199783,23.483670192959828,78.30664544809402,69.8814636637746,78.30830913266404,69.88312395285317,78.30532826485495,0.0
1,1,1,experiment,standing,2,5,noswitch,congruant,dashed,square,blue,right,right,yes,0.3887879848480224,2021-11-10 10:22:00,1636561925.657766,55.00086256799108,46.23151057918816,37.96411527670475,52.45463994407572,36.97687046625727,52.45748914005807,44.6414877207799,52.45666251285728,21.113880249427062,73.4726772023256,69.05018770957108,73.47273644639743,69.05033054718828,73.47179549526129,0.0
1,1,1,experiment,standing,2,6,noswitch,incongruant,dashed,triangle,blue,left,left,yes,0.5810389518737793,2021-11-10 10:22:00,1636561927.6112788,49.192638459081884,47.13666551057624,32.68194562295905,48.21078384601647,34.26126730975351,48.212253184811566,35.099807340949795,48.20942191771176,19.563131465531487,78.33460564039747,72.94597694492641,78.33386559403391,72.94702478239684,78.33435051793965,0.0
1,1,1,experiment,standing,2,7,noswitch,incongruant,dashed,square,yellow,right,right,yes,0.4541401863098144,2021-11-10 10:22:00,1636561929.44476,47.48667961135631,53.67401208833506,34.94234147705118,46.449506519440405,34.903610056879316,46.44956689562303,37.024909408396304,46.45171511357254,23.855758170819563,89.7261037243384,82.57240261269709,89.72545924397193,82.572295970224,89.72587273365919,0.0
1,1,1,experiment,standing,2,8,switch,congruant,solid,triangle,yellow,right,right,yes,0.4644818305969238,2021-11-10 10:22:00,1636561931.2752523,49.080705905308534,52.93060207049818,32.648798091284334,53.90621557133516,36.00381761191392,53.90498628161415,35.649679402913925,53.904074581464876,23.78115441353829,89.70810060715073,83.948384066871,89.7082960097816,83.94775952108311,89.70745276968546,0.0
1,1,1,experiment,standing,2,9,switch,congruant,dashed,square,blue,right,right,yes,0.7307100296020508,2021-11-10 10:22:00,1636561933.3428702,53.78567948005499,55.009357339038964,39.101904710267036,50.4537975796057,38.23736493963168,50.45217495856596,40.81708678387261,50.45381629693957,22.79323146895615,86.98785849486114,81.8693197105545,86.98690582405219,81.86935287863129,86.98814588390096,0.0
1,1,1,experiment,standing,2,10,switch,incongruant,solid,square,blue,left,left,yes,0.8824119567871094,2021-11-10 10:22:00,1636561935.5887856,50.47548589592674,58.60373579868975,36.94428655869143,58.555290074317995,35.531839155887916,58.55779465843771,36.557222893481985,58.556915666564514,23.594354715229205,98.58388988420947,87.53865513260389,98.58452614538953,87.53847603096249,98.58525663976982,0.0
1,1,1,experiment,standing,2,11,switch,incongruant,dashed,square,blue,right,right,yes,1.3175601959228516,2021-11-10 10:22:00,1636561938.2560906,50.8644424721953,53.73385833670268,34.290526393010964,51.56001712339759,37.755017985273724,51.5607568367351,34.145742006621845,51.5616707596576,20.5367643429788,92.05810696660429,83.23799170887159,92.0571379293861,83.23811592633908,92.05801875213002,0.0
1,1,1,experiment,standing,2,12,noswitch,incongruant,dashed,triangle,blue,left,left,yes,0.9148540496826172,2021-11-10 10:22:00,1636561940.5012398,54.46851122873634,52.80651617089563,36.795219865476625,53.9944176923492,41.14734546942772,53.993925601058095,36.43347067466287,53.99288001020279,22.83388563258379,85.82902437812064,82.61210647485123,85.82878134548487,82.61158239068213,85.82965105045376,0.0
1,1,1,experiment,standing,2,13,switch,congruant,solid,square,blue,left,left,yes,1.3117539882659912,2021-11-10 10:22:00,1636561943.1601386,54.550050326226646,60.069335600993874,36.921109262870644,55.74748182158945,41.495182770856175,55.74790839921866,33.220514526690984,55.746074172126065,22.79916709131106,101.8871441002612,95.9356624809251,101.88819268859568,95.93683877399364,101.88751341703363,0.0
1,1,1,experiment,standing,2,14,noswitch,congruant,solid,square,blue,left,left,yes,0.7090520858764648,2021-11-10 10:22:00,1636561945.2274325,58.11935682408897,52.12779308044213,39.30186746146505,57.17687309195584,38.59198109174134,57.17810598134831,36.64551218449378,57.1777288009361,23.508295195321026,84.27970897979269,78.51039000805376,84.27739600896281,78.51069285886037,84.27769390654251,0.0
1,1,1,experiment,standing,2,15,noswitch,incongruant,solid,triangle,yellow,right,right,yes,0.7835710048675537,2021-11-10 10:22:00,1636561947.354957,51.38398409294865,51.67620778329917,35.9013122814475,57.793395727225196,37.754522321100566,57.791440619549306,36.25539168719766,57.791688370482255,23.610679255375356,89.90363490300484,81.81221843440976,89.9032605570079,81.81153228469176,89.90305730013472,0.0
1,1,1,experiment,standing,2,16,noswitch,incongruant,solid,triangle,blue,left,left,yes,0.467357873916626,2021-11-10 10:22:00,1636561949.1837354,56.9556025300373,55.31136383389072,37.62272256106209,55.6075648318901,41.99995694938563,55.60630546997596,35.4186071121358,55.607810467578915,24.570814338823297,90.32895172646292,86.4420966335689,90.33071465788308,86.44186700198621,90.32884032038373,0.0
1,1,1,experiment,standing,2,17,noswitch,congruant,solid,triangle,blue,left,left,yes,0.4625530242919922,2021-11-10 10:22:00,1636561950.9548662,51.8714965824634,54.926173827869725,37.826437919910184,54.16042484857929,37.44178264382353,54.16070970680153,34.27891921281738,54.159543004955886,21.28805954079311,88.89113557662262,82.16283059089899,88.88898252087553,82.1649192419703,88.89102927015917,0.0
1,1,1,experiment,standing,2,18,switch,incongruant,dashed,square,yellow,right,right,yes,1.3376290798187256,2021-11-10 10:22:00,1636561953.6752326,60.18654334391245,56.97984000928369,40.01751849063284,60.47115307842852,39.00621698268913,60.47151526169953,36.03442467960167,60.472022493539924,24.34861425039403,95.51818338888656,87.95547128240197,95.51721869903143,87.95449462647713,95.51844117851556,0.0
1,1,1,experiment,standing,2,19,noswitch,incongruant,dashed,triangle,yellow,left,left,yes,1.0733211040496826,2021-11-10 10:22:00,1636561956.1013963,61.345843174595416,59.51749450544825,39.190490534810635,63.07203359094682,41.337496900264355,63.07204698424342,35.979748553751044,63.0707876282859,24.2928331255339,103.94586728377762,92.33997252520258,103.94675338589354,92.34059194934021,103.9475941145565,0.0
1,1,1,experiment,standing,2,20,noswitch,incongruant,dashed,square,blue,right,right,yes,0.5002808570861816,2021-11-10 10:22:00,1636561957.9314878,58.169522696043856,58.56389164169961,40.2091226396092,61.278433640438166,39.12162121371552,61.27724595096137,38.789409531214076,61.275173380146704,26.250431547152516,97.80005268171503,89.70701033252871,97.80018758542272,89.70746757887511,97.79775158213113,0.0
1,1,1,experiment,standing,2,21,noswitch,congruant,dashed,square,yellow,right,right,yes,1.2272870540618896,2021-11-10 10:22:00,1636561960.531842,59.81189518095535,58.5676225930558,39.642772189727836,60.87111477078548,41.990086663880824,60.87000843913212,38.23811498316519,60.870311475834924,26.755808423995383,98.66285443023855,91.81488484317771,98.66271673606172,91.81520367722514,98.66256439846842,0.0
1,1,1,experiment,standing,2,22,switch,incongruant,solid,triangle,blue,left,left,yes,0.4705238342285156,2021-11-10 10:22:00,1636561962.3638797,62.76339486691229,58.68525887001246,41.47071112620702,62.643633218432235,46.84592512147209,62.6433811767373,39.05375892439831,62.64211972545487,23.855238725264776,100.47135121403043,92.02209110491545,100.471322392325,92.02142371262133,100.47094504095014,0.0
1,1,1,experiment,standing,2,23,noswitch,incongruant,solid,square,yellow,right,right,yes,0.9644570350646972,2021-11-10 10:22:00,1636561964.670819,56.90132832985374,57.171632743644466,38.609450360509555,57.34889291072005,39.69747109356059,57.348337554002754,38.00743446107968,57.34924338191893,27.06787328544786,96.93738157102159,89.26081269353362,96.93790317600056,89.26357979571719,96.93763894973675,0.0
1,1,1,experiment,standing,2,24,switch,congruant,dashed,square,yellow,right,right,yes,0.775568962097168,2021-11-10 10:22:00,1636561966.7970414,60.40176650403431,57.31760784846756,41.77150940145713,60.4093492634654,43.974378572071274,60.409788883610034,39.674980298567576,60.40842501839311,20.631389059347743,93.72536699937058,83.71387937173184,93.72441384487114,83.71505070985036,93.72438121547765,0.0
1,1,1,experiment,standing,2,25,switch,congruant,solid,square,yellow,right,right,yes,1.0083749294281006,2021-11-10 10:22:00,1636561969.1595964,73.60541349215994,56.02355013228691,43.80903986853433,67.85236786205891,43.792492926702224,67.85172481171283,34.74233246494653,67.85253486593601,22.95006310026352,103.51350765168557,93.70744774720275,103.51395941810515,93.7056634749711,103.51244946960827,0.0
1,1,1,experiment,standing,2,26,noswitch,congruant,solid,square,yellow,right,right,yes,1.4053590297698977,2021-11-10 10:22:00,1636561971.9370456,52.070767444057076,60.50310174441323,38.388172050615594,62.39477990357895,38.039270471686365,62.39346852997376,36.03571570100599,62.39389365793018,25.555884069637177,106.6065922637503,91.17191733792293,106.60675462557731,91.17161564931342,106.60682382380739,0.0
1,1,1,experiment,standing,2,27,noswitch,congruant,solid,square,yellow,right,right,yes,0.408607006072998,2021-11-10 10:22:00,1636561973.708147,51.2182030302813,53.13420871984676,36.634227442966555,52.113892153853946,39.05818670204387,52.1147104963777,36.68819943089206,52.11604430214834,21.591212250233724,87.62989836547973,78.64469072129866,87.62861315788251,78.64548460518085,87.63005078831738,0.0
1,1,1,experiment,standing,2,28,switch,incongruant,dashed,triangle,yellow,left,left,yes,0.660452127456665,2021-11-10 10:22:00,1636561975.7208369,53.102532091396846,52.39392496562067,35.01222532382619,52.909028783605415,35.018216314642736,52.90925902633633,35.62159109151651,52.908767340901356,23.629307744369225,88.82403510475604,83.11518721525698,88.82439364199581,83.11559965547399,88.82594061109806,0.0
1,1,1,experiment,standing,2,29,switch,incongruant,solid,square,yellow,right,right,yes,0.9260210990905762,2021-11-10 10:22:00,1636561978.024411,52.06573167939065,55.26117625039818,32.86777374407087,53.301514398756716,39.337069064386284,53.300346471008304,33.21773512076369,53.30081116280477,25.260808300083408,96.95074933040635,91.37401234983696,96.94910141651121,91.37443594388384,96.9488346320197,0.0
1,1,1,experiment,standing,2,31,switch,incongruant,solid,triangle,yellow,left,right,no,1.2601220607757568,2021-11-10 10:22:00,1636561988.3914783,66.89103266305978,51.29511207638295,40.62119691246873,59.99569493861747,45.18228187185681,59.994587259380346,36.537668173920466,59.99585181395578,24.574872527449763,89.66040114049326,79.9388403769671,89.66266961526836,79.93897303656762,89.65315365219818,0.0
1,1,1,experiment,standing,2,32,switch,incongruant,dashed,triangle,blue,left,left,yes,0.4484729766845703,2021-11-10 10:22:00,1636561995.160348,63.17409502995657,52.888523080683406,40.14734147453353,54.52121281344619,47.63100655798222,54.52264213801331,35.72094674461675,54.52265227094383,21.70018822187103,92.70253267465873,83.2133205404322,93.05115457073681,83.03599420314121,100.27564289195563,0.0
1,1,1,experiment,standing,2,33,switch,incongruant,solid,triangle,yellow,right,right,yes,0.3713550567626953,2021-11-10 10:22:00,1636561996.8760505,69.57513689257527,53.930722823007756,38.438066279393645,57.49301243000247,41.19201042370824,57.493308603097134,35.18516446875253,57.49508060683892,21.910843227107723,98.52818626100157,91.9214952303612,98.52719983026589,91.92134164086485,98.52144313383391,0.0
1,1,1,experiment,standing,2,34,switch,incongruant,dashed,triangle,yellow,left,left,yes,1.1588609218597412,2021-11-10 10:22:00,1636561999.355682,66.45482585096805,58.2858915198338,44.09054880704673,68.84681295322645,42.69382692789206,68.84812999825826,41.024728026149354,68.84779835459547,23.34515965570361,99.13152916745749,87.23530230207832,224.44500291133545,231.23482681742288,336.9139647825185,0.0
1,1,1,experiment,standing,2,35,noswitch,congruant,dashed,triangle,blue,left,left,yes,0.3445520401000976,2021-11-10 10:22:00,1636562001.0077407,52.98887101994408,53.14945625935988,37.55052823452646,48.47752815239489,44.04794385975184,48.47524730238936,33.25108434185681,48.47521151177549,24.189829407792846,85.92120801695032,83.51297262287794,87.68695408769524,85.3661403258321,102.88847006882644,0.0
1,1,1,experiment,standing,2,36,noswitch,congruant,dashed,triangle,yellow,left,left,yes,0.4608440399169922,2021-11-10 10:22:00,1636562002.778641,62.58414756623238,48.77584475700145,40.56261246568681,58.04896747614565,40.8528458338752,58.050989887449084,36.94477826724115,58.04992258263562,19.006625086689375,76.50092285327659,70.66287717112385,76.50180368252882,70.65855744779728,76.48978974229551,0.0
1,1,1,experiment,standing,2,37,noswitch,congruant,dashed,triangle,blue,left,left,yes,1.2264399528503418,2021-11-10 10:22:00,1636562005.3211715,63.36184666451909,61.05018077201222,42.66937912200981,61.02175384758416,43.68920563179787,61.022715847196885,40.212027800988174,61.02441398673112,27.485686142268246,99.14726632066218,97.29471006529964,99.1470683038499,97.29437882766608,99.14615503953458,0.0
1,1,1,experiment,standing,2,38,switch,congruant,solid,square,blue,left,left,yes,1.0193579196929932,2021-11-10 10:22:00,1636562007.6848824,63.111367384474974,54.258303968490246,39.871781108541036,58.62631773807424,43.42154344542195,58.62748853203784,37.121277219244554,58.626748313870586,23.585334254033793,90.66233660706575,85.96239214437234,90.66014260784357,85.96230302994172,90.66157776922613,0.0
1,1,1,experiment,standing,2,39,noswitch,congruant,solid,triangle,blue,left,left,yes,0.6556780338287354,2021-11-10 10:22:00,1636562009.693494,74.28965672552029,72.6115615414479,46.788717238888474,74.48974420581625,42.550914287260724,74.48981902755011,42.050083622758265,74.49034129620662,24.688629877212584,128.09658726982255,120.22861227642045,128.09602158988352,120.22978034087548,128.0960607058886,0.0
1,1,1,experiment,standing,2,40,switch,congruant,dashed,triangle,yellow,left,left,yes,0.4063389301300049,2021-11-10 10:22:00,1636562011.4637306,52.978879642692604,56.453053408003555,41.14572722699504,56.908536514214816,38.64918652618699,56.909166903695166,31.7543471896446,56.90763574555985,26.57526357309089,89.35602859466185,81.33699771490672,89.35442435209288,81.33614853568105,89.3563469051332,0.0
1,1,1,experiment,standing,2,42,noswitch,congruant,solid,square,blue,left,left,yes,1.08610200881958,2021-11-10 10:22:00,1636562021.5967646,55.980280342929895,49.83007159083005,36.47882771063354,55.29664301542203,39.50297657087796,55.29819388386558,31.183222687937683,55.296938374688175,18.792829390812006,84.61303370713574,76.81626247654592,84.61291646910281,76.81679443755131,84.61280625485226,0.0
1,1,1,experiment,standing,2,43,noswitch,congruant,solid,square,blue,left,left,yes,0.3733980655670166,2021-11-10 10:22:00,1636562023.3091526,58.49030009162157,50.38813285830041,35.43376026987551,52.69775273340994,37.45030095666266,52.69832553869312,31.96783759237694,52.69720754138984,23.893577380287077,86.1065812190286,81.66968017933148,86.10571525860261,81.67055371719778,86.10520155887238,0.0
1,1,1,experiment,standing,2,44,noswitch,incongruant,solid,square,yellow,right,right,yes,0.3863389492034912,2021-11-10 10:22:00,1636562025.0837388,78.63700162852079,70.9178186753678,46.721504465043054,74.66656307660776,46.75452663199724,74.66662406129805,37.29340350713709,74.6672345280961,22.03154815685682,129.3882779480617,115.91781598627317,129.3868720507498,115.91647558166461,129.38810630437024,0.0
1,1,1,experiment,standing,2,45,switch,incongruant,dashed,triangle,blue,left,left,yes,0.5131449699401855,2021-11-10 10:22:00,1636562026.9136958,65.03503307349753,54.736931840205784,37.797732718578,62.95043509999298,41.14026862054909,62.950222259727155,31.07434524333951,62.947534316392,23.396081564965066,96.59371792562814,91.174885412375,96.59477372219462,91.1745748470025,96.5942486439216,0.0
1,1,1,experiment,standing,2,46,switch,incongruant,solid,triangle,yellow,right,right,yes,0.4326000213623047,2021-11-10 10:22:00,1636562028.6893609,74.96109282884068,60.07502236275697,42.65197683407969,67.28956672465816,42.22998226226433,67.28785934618647,34.914143701922214,67.2895121696354,21.351815139433153,109.00332712063735,100.10734680501733,109.00300671321739,100.10725212285311,109.00497014083933,0.0
1,1,1,experiment,standing,2,47,noswitch,incongruant,solid,triangle,blue,left,left,yes,0.5467028617858887,2021-11-10 10:22:00,1636562030.5799634,59.777064932730305,51.70390541224282,38.45866506447066,59.701620047806294,39.65057686891176,59.70199373993345,35.643615280449545,59.698738910283424,24.25400012977696,90.95167891194005,84.13237430097966,90.9512424187066,84.1326269730431,90.94818314604397,0.0
1,1,1,experiment,standing,2,48,switch,incongruant,dashed,square,blue,right,right,yes,1.0822269916534424,2021-11-10 10:22:00,1636562033.0047655,66.61664485756472,58.179479448183706,41.127579368041,67.08713310484339,42.55087496470516,67.0871446352623,37.51800392115356,67.08649965359999,22.06854338675804,103.49300265836924,91.23792412845097,103.49344862069238,91.23930659940444,103.49485114831337,0.0
1,1,1,experiment,standing,2,49,noswitch,congruant,dashed,square,yellow,right,right,yes,0.3075950145721435,2021-11-10 10:22:00,1636562034.6560717,63.79554128372382,58.994060171318985,41.953945104075245,61.98083585732842,44.80919418225034,61.98199774728148,33.01324441453164,61.97990134572312,22.903116226809825,98.21754395519665,90.96641494698208,98.22129570417593,90.96721193231389,98.21818555916448,0.0
1,1,1,experiment,standing,3,1,buffer,buffer,solid,square,blue,left,left,yes,1.3210210800170898,2021-11-10 10:22:00,1636562052.8370397,62.03361985771012,60.68613051492696,42.93333140758825,61.41199239734279,42.08358177096538,61.411383111460175,83.17017631829174,61.41073955005418,19.087481109183656,99.67519921636591,88.37743013834132,99.67513504143938,88.37654024051217,99.65696536106186,0.0
1,1,1,experiment,standing,3,2,noswitch,incongruant,solid,square,yellow,right,right,yes,0.510826826095581,2021-11-10 10:22:00,1636562054.7317417,62.96853624096292,67.81094834429764,47.769138637034835,68.70768119453271,46.79346609139267,68.70733979198386,80.18983513122251,68.70951881666002,16.776617060198063,113.90688176054624,98.5536287315117,192.31963060530424,98.55310462872963,248.78352009065554,0.0
1,1,1,experiment,standing,3,3,switch,congruant,dashed,square,blue,right,right,yes,0.721444845199585,2021-11-10 10:22:00,1636562056.79975,70.42854458427082,78.43452767184823,57.14936096234926,81.2545598983037,52.78536101436808,81.25484072296679,91.60823880461633,81.25247113440541,18.575315671615883,125.95492215981628,103.69975159629348,656.6455637761119,642.3967475933874,551.2797230642843,0.0
1,1,1,experiment,standing,3,4,switch,incongruant,solid,square,blue,left,left,yes,0.821382999420166,2021-11-10 10:22:00,1636562058.9886117,65.97451549406972,77.418261512659,53.76440634944124,85.11401324633312,49.124681052654395,85.11474382755543,90.88014551481568,85.11778133945009,17.89486346012014,127.13750768574265,105.56766529887221,412.05939499858704,400.3710674898025,328.00262706839,0.0
1,1,1,experiment,standing,3,5,noswitch,congruant,solid,square,blue,left,left,yes,0.5244960784912109,2021-11-10 10:22:00,1636562060.8778152,66.97870231078764,72.1613871007408,53.73712974362059,77.73638074940827,48.10347472404283,77.73835245493501,77.21807670591666,77.74024999646815,18.53985289592785,115.47655921999291,97.36545232448583,429.4396574033971,199.94372369830077,730.9397207965909,0.0
1,1,1,experiment,standing,3,6,switch,congruant,dashed,triangle,yellow,left,left,yes,0.7319519519805908,2021-11-10 10:22:00,1636562062.9452574,67.95814829456819,75.92249122766407,58.864120824120505,87.44680549265397,57.40241295472859,87.44705469180056,76.53904894650333,87.44660233413659,16.16882872153255,120.1288654752236,96.08482798069595,488.8836801593695,96.09298080471237,751.677917397589,0.0
1,1,1,experiment,standing,3,7,noswitch,congruant,dashed,triangle,blue,left,left,yes,0.5713138580322266,2021-11-10 10:22:00,1636562064.8365514,68.84895836248062,79.8322703329027,53.49067384116518,83.78315138811543,49.150456714714686,83.78233784391853,68.01219153707923,83.78022018333327,17.153061104289197,135.34893542805662,109.53565323577743,555.2484121500435,109.53778944104023,895.1013417502594,0.0
1,1,1,experiment,standing,3,8,switch,incongruant,solid,triangle,yellow,right,right,yes,0.3912420272827148,2021-11-10 10:22:00,1636562066.610996,79.6561268033579,87.15564215517709,62.16821060288946,92.10229895522471,56.678375862154084,92.10289376384925,76.45374284402818,92.10169931945131,17.047402520910616,142.36267892543736,121.90377843205846,171.89456889924645,121.90478685780586,222.9054158307879,0.0
1,1,1,experiment,standing,3,9,noswitch,incongruant,solid,triangle,blue,left,left,yes,1.1526780128479004,2021-11-10 10:22:00,1636562069.0923903,64.97895614377715,71.8686660222086,54.25980098398488,75.9385395388989,52.04128671393904,75.93940122930103,83.61248209547203,75.93754653527523,20.435568054880015,115.76367664493094,97.32311105242142,115.76042971845338,97.32285039520082,115.77636421221554,0.0
1,1,1,experiment,standing,3,10,switch,incongruant,dashed,square,yellow,right,right,yes,0.6558749675750732,2021-11-10 10:22:00,1636562071.1022234,64.73438859423241,80.02609820972773,54.841151848113505,83.69153453506303,52.54019768976052,83.69432182607201,71.63535327517963,83.69315467677826,16.962665514455995,130.63237473595484,111.53652382442743,130.6326288011934,111.53355440400588,130.63321628838884,0.0
1,1,1,experiment,standing,3,11,noswitch,incongruant,dashed,triangle,blue,left,left,yes,0.8455450534820557,2021-11-10 10:22:00,1636562073.292292,67.47639367889892,66.43704515159135,51.15068174017996,69.61944251609732,52.842413111661834,69.61937784198956,83.19202211523468,69.6205601618071,19.72332656067898,104.02683367410988,92.5159585615602,104.02623307540166,92.51528443547228,104.02644330405353,0.0
1,1,1,experiment,standing,3,12,noswitch,congruant,dashed,triangle,yellow,left,left,yes,0.6064150333404541,2021-11-10 10:22:00,1636562075.2405844,61.14372516282919,67.12739355720902,48.03659175500192,72.52452496040428,47.069457726685066,72.52414812486407,71.90717019508412,72.52484941418508,17.857961260568107,110.58348867277931,94.74675835595593,110.58262865887876,94.74682887551559,110.58266512130601,0.0
1,1,1,experiment,standing,3,13,switch,incongruant,solid,square,yellow,right,right,yes,0.6402299404144287,2021-11-10 10:22:00,1636562077.249845,73.20634105228858,77.17441374930358,58.568342587640295,83.15806953084252,56.82415882698523,83.16135299740436,77.91758180645007,83.16006604218924,18.758463090160813,122.38784068597886,99.7881911291228,122.38810774366965,99.78812369066773,122.38781356053138,0.0
1,1,1,experiment,standing,3,14,noswitch,congruant,solid,square,yellow,right,right,yes,0.8772380352020264,2021-11-10 10:22:00,1636562079.4954307,70.71714503562475,74.89418762889296,53.07215870815634,77.47949888954315,58.346331626918165,77.47849625337379,68.94528754645003,77.48070090869996,17.252594451710575,124.98071386585211,106.88863839644681,124.98034613661684,106.88846703887823,124.98061921903683,0.0
1,1,1,experiment,standing,3,15,noswitch,incongruant,solid,square,blue,left,left,yes,0.4390730857849121,2021-11-10 10:22:00,1636562081.267702,66.60625283668352,74.95889370979654,52.67610788224209,79.54015576125978,53.47406834556209,79.53914900655928,75.29946678461471,79.54235831691317,18.3863490441415,123.35709316805206,104.07132051591378,123.35559876918806,104.07058020838721,123.3547969117688,0.0
1,1,1,experiment,standing,3,16,switch,incongruant,dashed,square,yellow,right,right,yes,0.6210019588470459,2021-11-10 10:22:00,1636562083.276717,71.77415366810486,75.92625688167816,53.839718716109445,79.25647699835216,54.76261120309942,79.25396922522741,104.11370336205252,79.25395917498638,14.358065039741602,125.44854786388221,105.03067884686921,268.39224320933386,254.74524076016309,266.3866930448242,0.0
1,1,1,experiment,standing,3,17,noswitch,congruant,dashed,square,blue,right,right,yes,0.7652430534362793,2021-11-10 10:22:00,1636562085.373471,67.70270203180381,76.53439309163085,50.8829391162727,74.99063008761777,51.87462712861645,74.98995104925001,65.70788582578645,74.99030910136476,18.144657683010298,128.56227515366203,111.66838073579474,128.55506317804657,111.59213879810423,128.5277835025456,0.0
1,1,1,experiment,standing,3,18,noswitch,congruant,dashed,square,yellow,right,right,yes,0.3679060935974121,2021-11-10 10:22:00,1636562087.0864742,61.11892906756203,78.62194043857166,52.26137758937709,77.25455599769253,60.568793500058575,77.25567936687979,56.36449374006776,77.25642394108536,20.37613143540646,129.41841166690395,111.81099042169365,129.4182635481403,111.81047539337153,129.4115293982719,0.0
1,1,1,experiment,standing,3,19,noswitch,congruant,dashed,square,blue,right,right,yes,0.4186761379241943,2021-11-10 10:22:00,1636562088.8580832,72.11748968378328,80.3331992480487,54.30235159525503,82.4495789016036,51.788156157392926,82.45030013328457,66.2786099590866,82.44800743649813,18.597285945874212,137.16262735646927,113.53304331066121,366.74901844855157,346.00995277758136,297.9464916711998,0.0
1,1,1,experiment,standing,3,20,switch,congruant,solid,triangle,yellow,right,right,yes,0.7985060214996338,2021-11-10 10:22:00,1636562090.9859016,68.28482433011467,76.3916786938881,53.774816389505155,82.5941789884032,56.25684513885389,82.59326850779465,117.78343840809349,82.59310480385868,18.611069932421923,129.1661246273108,104.42775528853119,510.8964753253527,416.9902203936153,669.088239380209,0.0
1,1,1,experiment,standing,3,21,switch,congruant,dashed,square,blue,right,right,yes,0.7883701324462891,2021-11-10 10:22:00,1636562093.1133597,64.95958252320949,81.01810292440803,56.945889623522646,89.70180998868923,51.29582055394703,89.70353145784989,92.42573855941806,89.69988892601437,16.46809347121022,137.2829462958518,104.76478339082645,603.8233750873775,586.157846267351,518.5469398451434,0.0
1,1,1,experiment,standing,3,22,noswitch,congruant,dashed,square,yellow,right,right,yes,1.1396028995513916,2021-11-10 10:22:00,1636562095.5965917,64.89736468027236,76.01013657414897,54.355352291473835,81.6666488764307,52.92062957164999,81.66672959617237,113.0882566823577,81.66654393886242,18.40204399273189,125.66579444409753,99.24668098662077,398.21029117130684,318.16432246671684,406.0586565466733,0.0
1,1,1,experiment,standing,3,23,noswitch,incongruant,dashed,triangle,blue,left,left,yes,0.5510399341583252,2021-11-10 10:22:00,1636562097.4927557,64.00526235329049,87.13932350508004,59.231528461517435,95.45037896439666,51.4841119381851,95.45044391698752,85.06039979831942,95.45113407591619,20.32651784675609,142.6258968882886,111.25045176638238,445.16823717397585,423.63167236367474,374.7840165880968,0.0
1,1,1,experiment,standing,3,24,noswitch,congruant,dashed,triangle,yellow,left,left,yes,0.3548829555511474,2021-11-10 10:22:00,1636562099.2034502,66.41394365301932,70.65690533001082,51.39389192131716,81.11750464666709,46.8623086233167,81.11545653519495,73.09608476405823,81.11575477618,16.860846140159012,123.7812044891797,100.78319184932293,261.51993515791105,238.06089716177559,242.96355814603808,0.0
1,1,1,experiment,standing,3,25,noswitch,congruant,dashed,triangle,yellow,left,left,yes,0.2764818668365478,2021-11-10 10:22:00,1636562100.7973154,56.98513566158911,79.26017731186047,54.80160006812851,88.6039159662583,42.24955616935919,88.60067411790034,96.35078477464342,88.600581391258,21.125718523268826,132.15659710406905,97.35754190556871,361.708685258236,338.82146384841855,296.8178194596603,0.0
1,1,1,experiment,standing,3,26,switch,incongruant,solid,triangle,yellow,right,right,yes,0.9499959945678712,2021-11-10 10:22:00,1636562103.108951,58.02433178209885,63.62106258083066,46.46012987228961,64.54323258910861,47.65305261520735,64.54447889172471,79.47474663591854,64.54213843057695,18.583830763006908,101.55597128530366,86.31399291075105,351.9768437474594,289.5293062197701,427.9953504514322,0.0
1,1,1,experiment,standing,3,27,switch,incongruant,dashed,triangle,blue,left,left,yes,0.6658999919891357,2021-11-10 10:22:00,1636562105.1187782,60.5180799972831,67.34764102404475,51.212687695756365,75.2802217284566,47.729446467473686,75.27839809953106,76.06087719704814,75.27668544227376,17.787145844622923,106.52202042994999,87.6823155455189,111.34435211631252,93.40149226398951,110.65622765322509,0.0
1,1,1,experiment,standing,3,29,switch,congruant,dashed,square,blue,right,right,yes,1.253486156463623,2021-11-10 10:22:00,1636562115.4903529,63.812125320961066,70.38764396212791,48.438267409754445,78.40534846323573,44.2873404642464,78.40550773838333,74.7851034741324,78.40794747613337,18.51701399970035,121.48342706858435,97.38041380556808,121.48287826213348,97.37990508680085,121.48317566850419,0.0
1,1,1,experiment,standing,3,30,switch,incongruant,solid,triangle,blue,left,left,yes,0.4964220523834228,2021-11-10 10:22:00,1636562117.3196738,67.13692223029808,81.18747880029821,54.97556501446219,83.94677645581322,50.800747677550284,83.94701651068883,93.97648333698704,83.94612395674972,16.118162383045945,134.0163705714252,113.43183734042216,134.01769243223498,113.43123920349092,134.01543382455034,0.0
1,1,1,experiment,standing,3,31,switch,incongruant,dashed,square,blue,right,right,yes,0.3256649971008301,2021-11-10 10:22:00,1636562119.0342162,66.44510755521425,66.11642601561357,50.39087430676134,74.33986125137773,49.559828576343236,74.3389408822022,68.34007262399294,74.34004248770954,19.095489175158534,106.98329885107512,90.02554828740739,106.98358183148181,90.0260128697629,106.98268157427337,0.0
1,1,1,experiment,standing,3,32,switch,congruant,solid,triangle,yellow,right,right,yes,1.2140119075775146,2021-11-10 10:22:00,1636562121.5744765,65.37252319078425,71.89338819367195,49.508282578619784,78.2560762687892,46.46916456601116,78.25706476359032,57.66001663283163,78.25515607288133,17.123233207044716,120.53883864605386,97.87293439517428,120.53986927611531,97.87355773252092,120.5391957278249,0.0
1,1,1,experiment,standing,3,33,noswitch,incongruant,solid,triangle,blue,left,left,yes,0.3538260459899902,2021-11-10 10:22:00,1636562123.2871644,62.84062385811277,69.56604433123866,49.28862522878599,70.22587810086422,49.65751818927415,70.22525961308422,54.75563524849876,70.22609958645943,18.93421303441831,113.3663495898725,97.20143406405077,113.36687707904905,97.20203828082137,113.36583058228197,0.0
1,1,1,experiment,standing,3,34,switch,congruant,dashed,triangle,yellow,left,left,yes,1.0622520446777344,2021-11-10 10:22:00,1636562125.7096434,64.86665830837872,70.86740590933744,53.159190798605835,81.73469551253923,50.97372167726447,81.73478362135754,61.263524018940224,81.73277480149736,17.12271963163298,116.82270099430822,92.98157501500258,116.82151294055282,92.9819567324384,116.82189114432722,0.0
1,1,1,experiment,standing,3,35,switch,congruant,solid,triangle,blue,left,left,yes,0.3444831371307373,2021-11-10 10:22:00,1636562127.3620436,66.55970807354011,85.01059660014855,59.165389064848185,91.05481573276936,54.254214595660585,91.05451430439034,64.25224309232128,91.05481325908914,16.287931047793354,137.78483809842106,111.24696033680084,137.78560389490337,111.24751070552453,137.78535973321948,0.0
1,1,1,experiment,standing,3,36,noswitch,congruant,solid,triangle,blue,left,left,yes,0.3120069503784179,2021-11-10 10:22:00,1636562129.0146997,68.90307651937495,83.38124785003173,59.230463689785864,92.28930237905793,55.525389090288336,92.2908611924233,70.57070789871352,92.29003137799074,19.48050776544406,137.7271727158538,104.9990080442735,137.72670101266,104.99875257918366,137.72864089626603,0.0
1,1,1,experiment,standing,3,37,switch,congruant,dashed,triangle,blue,right,left,no,0.8972690105438232,2021-11-10 10:22:00,1636562131.2615397,60.636179183932605,63.9305443629831,48.81571756367284,76.49210733902999,45.464716819798014,76.4922149219203,69.90800123143102,76.4936493881459,19.172843874759568,105.13680879760685,82.82115886111883,105.13665328490117,82.82008787684002,105.13636786200465,0.0
1,1,1,experiment,standing,3,39,noswitch,incongruant,dashed,triangle,yellow,left,left,yes,0.5199081897735596,2021-11-10 10:22:00,1636562145.9173913,62.236535812416605,82.02789871247961,57.78034305826053,97.97691956992503,53.85455257173772,97.97878666419638,53.93542527719104,97.97724758075971,16.926078575073088,139.03646296970712,102.71413336620299,139.03679437963126,102.71520109409596,139.0350932725025,0.0
1,1,1,experiment,standing,3,40,switch,congruant,solid,square,blue,left,left,yes,0.6011888980865479,2021-11-10 10:22:00,1636562147.8667068,62.75700262018942,70.94378571801207,51.24790667858284,77.58828314437069,47.729003052099955,77.5876210322857,51.0222774101506,77.58648365705601,20.92419044433119,114.48941060455746,95.55935125877613,114.48898962194889,95.56026215497397,114.4886787170639,0.0
1,1,1,experiment,standing,3,41,noswitch,incongruant,solid,square,yellow,right,right,yes,0.5425357818603516,2021-11-10 10:22:00,1636562149.7591934,57.6523634654538,68.00188321113687,48.875494954805816,77.68662231168207,44.12333871045399,77.68812292508711,53.42131442092585,77.6840746898775,17.614571451179792,112.98231511866096,85.85783697948688,112.98290955932069,85.85849270066089,112.98370938717945,0.0
1,1,1,experiment,standing,3,42,noswitch,congruant,solid,square,yellow,right,right,yes,0.519273042678833,2021-11-10 10:22:00,1636562151.6491313,59.67704868697649,58.17520346215026,45.22697741413813,68.11958379231366,46.19616518075058,68.11808868564748,57.763849736802854,68.12053356000824,19.53497001365214,97.8592962729115,79.23181035846213,97.85610109901491,79.23289434064615,97.85778671393317,0.0
1,1,1,experiment,standing,3,43,switch,incongruant,dashed,triangle,blue,left,left,yes,1.2758028507232666,2021-11-10 10:22:00,1636562154.2512815,62.616736939491716,68.44840122860256,50.89757348293961,84.06076472398576,52.280253359458456,84.06141453425626,61.17412732079568,84.0596118595863,16.484842695716168,117.30962026213479,91.04644207129193,117.30784822202044,91.04724210589079,117.3096956493476,0.0
1,1,1,experiment,standing,3,44,switch,incongruant,solid,triangle,yellow,right,right,yes,0.9922139644622804,2021-11-10 10:22:00,1636562156.614395,64.70518460675757,73.92749642818742,53.754055677536094,82.60506222528105,51.575890179078186,82.6064883205386,63.75599609258326,82.60309942713859,18.49734675668233,118.75712689573146,100.31113271337173,118.75520780362513,100.30901948661754,118.7546479572196,0.0
1,1,1,experiment,standing,3,45,noswitch,incongruant,solid,triangle,blue,left,left,yes,0.4997141361236572,2021-11-10 10:22:00,1636562158.445202,69.33422123216354,82.46603503180783,59.141812246375714,91.65425694074203,50.9393352668314,91.65295153596361,67.41993664623223,91.65135830072123,18.18338555135615,134.02772797891174,106.14089501965609,134.0282240319579,106.14067683669826,134.02886226887384,0.0
1,1,1,experiment,standing,3,46,noswitch,incongruant,solid,triangle,yellow,right,right,yes,0.959315061569214,2021-11-10 10:22:00,1636562160.752209,62.19033091448594,84.54939320664256,55.133380014511566,98.30123674625682,52.02928979034409,98.30185796022222,58.73159014651038,98.30178888397204,18.838332661252295,148.18075853608596,110.33826282930994,148.18137259020745,110.33814446812869,148.17990464409547,0.0
1,1,1,experiment,standing,3,47,switch,congruant,dashed,square,yellow,right,right,yes,0.4864580631256103,2021-11-10 10:22:00,1636562162.5826533,57.72355454631338,75.65480396600385,51.73723648361395,80.3909226774206,51.67341796355884,80.39106438566098,61.13247620719337,80.39232641546857,19.039951006941656,125.42465820041797,102.30357163371949,125.42494879269985,102.30392456190866,125.42721939224273,0.0
1,1,1,experiment,standing,3,48,switch,incongruant,solid,square,blue,left,left,yes,0.4560830593109131,2021-11-10 10:22:00,1636562164.3542006,63.499275163775,68.20175439679629,52.22712471436063,77.40854428388882,47.59271618322109,77.40919917575111,54.96924187574012,77.41098821339907,17.39424453493978,109.54156109903997,88.73343885298279,109.54097729597655,88.73372820246794,109.53921807386527,0.0
1,1,1,experiment,standing,3,49,noswitch,congruant,solid,square,blue,left,left,yes,0.4163551330566406,2021-11-10 10:22:00,1636562166.1259763,70.44798846759359,74.09005660915808,52.75965372571044,80.2109583131833,52.569782377986535,80.21298561049,51.28265082907937,80.21063225305254,19.785953342710968,128.47131864016103,99.83708455034319,128.4713712171699,99.83751586331461,128.47041006691455,0.0
1,1,1,experiment,standing,4,1,buffer,buffer,solid,triangle,blue,left,left,yes,0.760483980178833,2021-11-10 10:22:00,1636562177.1106036,64.18508971340574,72.64554642132525,49.87092524402878,72.83118886559033,46.55770259758286,72.83224868313661,54.66506237864805,72.83353385147588,17.406474185825115,119.17659941880385,101.51350908753665,123.25486506237431,104.45526221085555,122.60961920054669,0.0
1,1,1,experiment,standing,4,2,switch,congruant,dashed,triangle,yellow,left,left,yes,0.7487208843231201,2021-11-10 10:22:00,1636562179.1797056,64.81632617952786,72.44474452675074,49.47176732548371,78.92228259481305,43.35399932145244,78.92423149589845,54.93149332624279,78.92194777393637,16.631895521341313,120.39029551963729,99.76611961791409,280.8321976944044,194.3309974926074,312.26992983675575,0.0
1,1,1,experiment,standing,4,3,switch,incongruant,solid,triangle,yellow,right,right,yes,0.4733369350433349,2021-11-10 10:22:00,1636562181.0130415,65.00391508447437,59.7333527717843,46.14470225258911,67.54144999618212,46.02211678615829,67.53958688984558,84.62582420819936,67.5410624799314,17.444825200212318,97.55309810874567,83.10763092016317,248.10061096968565,279.11128384207126,280.3495916448126,0.0
1,1,1,experiment,standing,4,4,noswitch,congruant,solid,square,yellow,right,right,yes,0.4130301475524902,2021-11-10 10:22:00,1636562182.7850692,63.92659490815581,62.37762185614317,44.886208877299815,64.11666798989323,47.2077876030863,64.11649897589787,88.46134367769129,64.11572902213516,19.374086619063483,106.48979180242354,94.17044688667946,535.7222044809079,367.73917343280124,842.5643419858935,0.0
1,1,1,experiment,standing,4,5,noswitch,incongruant,solid,triangle,blue,left,left,yes,0.4627218246459961,2021-11-10 10:22:00,1636562184.5557697,61.43975299694954,63.19059928481046,46.66745794935772,72.33173360753061,43.64734806548005,72.3338980283565,65.90720125629747,72.33196475395826,19.954406852265453,103.84146802953406,88.64833249490572,461.52334509609454,367.53765007591477,605.4700008167855,0.0
1,1,1,experiment,standing,4,6,noswitch,congruant,solid,square,blue,left,left,yes,0.4468801021575928,2021-11-10 10:22:00,1636562186.3266006,63.36261815836975,56.98208472482468,44.499433419115114,64.37181098402365,44.58080933340331,64.37057845233853,71.63439110107541,64.37120586858408,19.198628170478752,91.41814430146692,81.64251920829801,437.89794738728193,429.20602516214615,395.3268209799554,0.0
1,1,1,experiment,standing,4,7,noswitch,incongruant,solid,square,yellow,right,right,yes,0.4121439456939697,2021-11-10 10:22:00,1636562188.1026397,56.870228888118994,65.96968267127814,45.7267814331774,72.34729362578796,41.68232310394955,72.3462878179735,78.50475453411273,72.3485290453383,18.869382717276494,109.60020506370205,87.64694572418783,266.34515639953366,245.47267741074978,239.1291924600674,0.0
1,1,1,experiment,standing,4,8,switch,incongruant,dashed,triangle,blue,left,left,yes,0.5793819427490234,2021-11-10 10:22:00,1636562190.055045,58.38080153132203,75.894530202384,51.16723807827286,82.27833041466731,48.95028098455971,82.27976585600234,81.03384930988469,82.2774165906889,19.304288884371708,125.123267717975,100.33334154226299,310.62445221878494,312.53742077102197,317.50119805985213,0.0
1,1,1,experiment,standing,4,9,noswitch,incongruant,dashed,square,yellow,right,right,yes,0.7847411632537842,2021-11-10 10:22:00,1636562192.183967,61.356225273840124,72.95071917828086,53.148584129848565,82.21871652544971,43.47080208073625,82.2179324915227,64.41748675725293,82.21861372582188,21.454184193154948,117.80422337169297,90.55708292593428,117.81087949868444,90.55903289095384,118.4829301767402,0.0
1,1,1,experiment,standing,4,10,switch,congruant,solid,triangle,yellow,right,right,yes,0.5697770118713379,2021-11-10 10:22:00,1636562194.1313982,61.8184968932475,65.80630252308428,47.73768482241722,67.16925900687768,44.42934876350303,67.16894838757393,59.3016206004692,67.16824371386798,19.56067354243688,107.33742468595524,93.90968293617286,107.33788050408644,93.91043696371405,107.33845013654077,0.0
1,1,1,experiment,standing,4,11,switch,incongruant,dashed,triangle,yellow,right,left,no,0.5626299381256104,2021-11-10 10:22:00,1636562196.0217223,58.92429785026609,75.09248128010444,48.964696641980375,79.100926863998,45.21188618704062,79.10086081784554,65.5932221154615,79.10116745915944,18.519751091021497,127.16863166352698,100.84640954064864,127.16946417032837,100.84692094158986,127.16971521084616,0.0
1,1,1,experiment,standing,4,12,switch,incongruant,solid,square,yellow,right,right,yes,0.7503681182861328,2021-11-10 10:22:00,1636562203.145628,61.317311122700275,75.1115293164154,54.99203617419957,87.20903567631298,49.74049968971937,87.20976637282291,55.5718414341332,87.21084155673799,19.139679950159124,125.38835293870865,93.71044341591885,125.38773456597501,93.71120164569527,125.3881388374925,0.0
1,1,1,experiment,standing,4,13,noswitch,incongruant,solid,square,blue,left,left,yes,0.5196840763092041,2021-11-10 10:22:00,1636562205.038736,62.995134844358745,58.95683388306457,45.459960140902126,64.78790972690196,45.45533280571013,64.78639259322212,50.172132397045516,64.78650849458437,17.923878858860412,96.60805822298012,81.39312055876503,96.60806753175608,81.39278475266806,96.60862547183872,0.0
1,1,1,experiment,standing,4,14,noswitch,congruant,solid,square,blue,left,left,yes,0.8997061252593994,2021-11-10 10:22:00,1636562207.284232,70.15532858923716,70.5844980068522,50.55812476805253,81.05665728436095,50.920675328861286,81.05678712717422,48.97063872548688,81.05726913409758,15.364855078498776,119.51999188563144,99.29027616197402,119.52077276461654,99.28985085986712,119.51975419749665,0.0
1,1,1,experiment,standing,4,15,noswitch,congruant,solid,triangle,blue,left,left,yes,0.6859090328216553,2021-11-10 10:22:00,1636562209.2928066,59.66749936442956,63.16056120809637,42.851169117903254,67.14889017855862,42.62005114268225,67.14759952413085,45.599277343782376,67.15059890312968,15.062625218651759,106.11884126958434,90.34385700874088,106.11802140681827,90.34377610552765,106.11963447143339,0.0
1,1,1,experiment,standing,4,16,switch,incongruant,dashed,square,blue,right,right,yes,0.6733758449554443,2021-11-10 10:22:00,1636562211.3014176,63.72591311116596,72.58308527098433,50.27499482260405,78.52771056050797,43.715071526830776,78.52630988511517,48.6249603229242,78.52624524670563,15.425615247814338,123.40181306047023,101.31520184924626,123.40106655533495,101.3150346558432,123.40194103541378,0.0
1,1,1,experiment,standing,4,17,noswitch,incongruant,dashed,triangle,yellow,left,left,yes,1.1151940822601318,2021-11-10 10:22:00,1636562213.7858896,61.82573757763423,71.52276521486407,53.73061096122418,82.3735412119015,46.832332081282175,82.37357844659826,49.155593170248125,82.37496658658011,17.28129231361059,116.00066345880622,91.57308370202209,116.00222877385897,91.57284387396425,116.0012522518572,0.0
1,1,1,experiment,standing,4,18,noswitch,incongruant,dashed,square,yellow,right,right,yes,0.4651010036468506,2021-11-10 10:22:00,1636562215.6189227,64.95867429392928,72.27666907835007,55.26494605367012,82.2516421877711,51.339848340862396,82.25006721305664,58.53330105090509,82.25169790940376,15.943587301721651,114.90643684936789,91.49552410349737,114.90646387721345,91.49574256941912,114.90664601489487,0.0
1,1,1,experiment,standing,4,20,switch,congruant,dashed,square,blue,right,right,yes,0.6586229801177979,2021-11-10 10:22:00,1636562225.391435,65.6368183830127,68.69604570880756,48.77021275977679,67.65040458230543,49.336750481954674,67.65084749280737,54.728167024880634,67.65134799249395,16.454480360630082,112.29612618231793,97.78930295804018,112.29578432466404,97.79079237111613,112.29690433612912,0.0
1,1,1,experiment,standing,4,21,switch,congruant,solid,triangle,yellow,right,right,yes,0.3466250896453857,2021-11-10 10:22:00,1636562227.1049552,60.54885870041412,78.81472619545745,56.782611652343725,82.77727305208508,51.079590607657124,82.77702449423974,56.89997389886536,82.78097516946916,16.157442167873178,122.29873302766325,103.77325670320019,122.29980268373825,103.77439506677594,122.29742208718704,0.0
1,1,1,experiment,standing,4,22,switch,incongruant,dashed,triangle,yellow,left,left,yes,1.155891180038452,2021-11-10 10:22:00,1636562229.587278,70.7007279898613,81.33926406241042,57.14601608644723,86.62025838115994,56.6111351189387,86.62219846456416,59.5069060795538,86.62277066572794,18.594991208739053,135.56617659195325,109.62490121260997,135.56578689263532,109.62537619607151,135.56683111170653,0.0
1,1,1,experiment,standing,4,23,noswitch,congruant,dashed,triangle,blue,left,left,yes,0.3907070159912109,2021-11-10 10:22:00,1636562231.2977476,59.65012602161381,72.84813211181887,50.43594562529072,75.12483072621946,50.07556350384014,75.12547577200688,53.451986768131206,75.12709204388428,17.530955609509565,116.57227736885231,102.14422261138994,116.57152762073402,102.1430949574558,116.57242553863864,0.0
1,1,1,experiment,standing,4,24,switch,incongruant,solid,triangle,yellow,right,right,yes,0.5710790157318115,2021-11-10 10:22:00,1636562233.249009,63.381975250472664,84.87119072934958,56.311516079530975,91.78066464742695,49.77225888900958,91.78134043937347,54.75706904289435,91.77785227837786,18.994314412586906,142.31552586801433,109.0833688140984,142.31442296110117,109.08644822282459,142.31532719702747,0.0
1,1,1,experiment,standing,4,25,noswitch,incongruant,solid,square,blue,left,left,yes,0.4306440353393554,2021-11-10 10:22:00,1636562235.022611,67.25730381663752,66.48718852313306,48.148741418454925,67.98716884601507,42.74220313265199,67.98643050112886,58.45600976774679,67.98661791671582,17.94698827029173,107.35385253988778,93.78394656344932,107.35316579340936,93.78306132473605,107.35359146030413,0.0
1,1,1,experiment,standing,4,26,switch,congruant,dashed,triangle,yellow,left,left,yes,0.342303991317749,2021-11-10 10:22:00,1636562236.6752405,62.75600692300403,66.06930137049153,48.050767952335114,65.58719510946719,45.227982110915015,65.58976926487408,49.774081864281236,65.58899585699724,18.49457128601498,102.78085140250957,92.20543784800176,102.78115922445045,92.20422916606155,102.78220054923668,0.0
1,1,1,experiment,standing,4,27,noswitch,congruant,dashed,triangle,blue,left,left,yes,0.6222021579742432,2021-11-10 10:22:00,1636562238.6245732,64.19570641079737,77.00117448448317,55.13952465306072,79.16821053597988,49.446012072485416,79.17015330450576,55.24431164486326,79.16881473769112,12.593385304240252,122.26832863786466,102.89084095676475,122.2699709651872,102.89036644594471,122.26890952849621,0.0
1,1,1,experiment,standing,4,28,switch,congruant,solid,square,blue,left,left,yes,1.0915520191192627,2021-11-10 10:22:00,1636562241.0455258,61.9237051038266,65.25306901754129,44.73981873354264,66.71201518486187,45.44218152464382,66.71265982171691,51.69225307529412,66.71466181230925,19.75793764202689,108.67155620919918,95.57416155382089,108.6718641091416,95.57478065208015,108.67111022703672,0.0
1,1,1,experiment,standing,4,29,noswitch,incongruant,solid,square,yellow,right,right,yes,0.5613059997558594,2021-11-10 10:22:00,1636562242.9959135,69.20152152778363,69.8264675145493,45.36997262272362,73.63839810231869,43.47154635085896,73.63829345205211,57.140192252748996,73.6389347138086,17.91180716754522,122.68860456146032,103.36191135743323,122.69089311907116,103.36142952883593,122.68871929402454,0.0
1,1,1,experiment,standing,4,30,switch,congruant,dashed,square,blue,right,right,yes,0.6083250045776367,2021-11-10 10:22:00,1636562244.9463334,72.82466874463353,81.22254045451476,58.1293554871583,88.67159571903981,49.18530321076014,88.67093909521967,55.74036031604738,88.6706822121817,17.306696337284464,132.62493721364223,108.47401112679415,132.62360476788794,108.47357784743606,132.62333651385694,0.0
1,1,1,experiment,standing,4,31,noswitch,incongruant,dashed,triangle,yellow,left,left,yes,0.4967429637908935,2021-11-10 10:22:00,1636562246.7770543,66.39179736741902,82.66727032278068,54.46484645329429,88.3664029878316,44.91560275468749,88.36557711469138,56.645769087550875,88.3661765000212,19.824718588316525,140.4893948101846,114.13633259228146,140.4883208637978,114.13599392566015,140.48875916552123,0.0
1,1,1,experiment,standing,4,32,switch,congruant,solid,triangle,blue,left,left,yes,0.3073711395263672,2021-11-10 10:22:00,1636562248.429686,63.175780835562215,69.22536191666347,48.88270033947391,80.44838737897511,44.775760703693116,80.4452672190387,56.49297128946307,80.44398829048883,15.50911712406591,116.76978552175503,90.39518108363576,116.77029860439147,90.39468999909803,116.7695044818768,0.0
1,1,1,experiment,standing,4,33,noswitch,congruant,solid,triangle,blue,left,left,yes,0.8317468166351318,2021-11-10 10:22:00,1636562250.6171625,62.72749901452724,70.03805418553617,46.08788340443083,70.28364021200419,39.88264583823432,70.28616896120552,51.681503108025446,70.28415898391363,22.393977189942795,118.80698786979256,98.96609036047336,118.80653047525965,98.96528192895987,118.8060544095825,0.0
1,1,1,experiment,standing,4,34,switch,congruant,dashed,triangle,blue,left,left,yes,0.6727440357208252,2021-11-10 10:22:00,1636562252.6272607,58.86001396077425,69.87926018021142,47.28400486311752,68.69386453624817,45.206099642142945,68.69542737332276,49.105319445106005,68.69404549326282,16.839198386343817,112.1506771601434,97.72369615036517,112.15079996955473,97.72157904581901,112.14964821531764,0.0
1,1,1,experiment,standing,4,35,noswitch,incongruant,dashed,square,blue,right,right,yes,0.6462948322296143,2021-11-10 10:22:00,1636562254.6362002,69.25875208428852,64.89430007074775,46.70138314993881,69.39578134661639,47.87993404971545,69.39478248905962,51.12416750050549,69.39500101632065,19.02202459867009,110.12637691305198,97.0529415987312,110.1278616545764,97.05174452220008,110.12675056918746,0.0
1,1,1,experiment,standing,4,36,noswitch,incongruant,dashed,triangle,blue,left,left,yes,0.39556884765625,2021-11-10 10:22:00,1636562256.3473296,67.6416484057327,74.94859206997283,53.259666104990934,80.63631083699642,45.550070982641245,80.63691187449452,58.73546889795731,80.63866245784112,15.959672189093121,123.91176129278789,102.33827959648944,123.91180659313797,102.33925504645416,123.91279707025605,0.0
1,1,1,experiment,standing,4,37,switch,incongruant,solid,square,yellow,right,right,yes,0.4961562156677246,2021-11-10 10:22:00,1636562258.178214,60.956587445121436,57.19994354362133,41.35976669465357,59.40753672471512,42.53631740870099,59.41025270710992,50.919992958273205,59.41224222264098,17.350188937114016,96.29165646559747,82.63508507764313,96.29262653569857,82.63550695889366,96.29233915818041,0.0
1,1,1,experiment,standing,4,38,noswitch,congruant,solid,triangle,yellow,right,right,yes,0.3405230045318603,2021-11-10 10:22:00,1636562259.8899274,74.10430699331324,71.30515246740202,52.60468704641595,69.73568064203945,51.54644700268507,69.73582522077808,52.35968600841699,69.73628893550641,19.57893564165656,115.93726500166215,104.75293417568633,115.93654163741239,104.75197065558608,115.93887502240035,0.0
1,1,1,experiment,standing,4,39,switch,congruant,dashed,square,yellow,right,right,yes,0.5128011703491211,2021-11-10 10:22:00,1636562261.781496,62.30989263214432,78.73714745534886,50.40095295249276,82.00930141839359,45.091997986797736,82.0085734115091,56.689836802543574,82.00661801202993,19.30981007553324,133.75788550752068,111.48331047072632,133.75640406003257,111.48467044389717,133.75779526515623,0.0
1,1,1,experiment,standing,4,40,switch,congruant,solid,triangle,yellow,right,right,yes,1.2944130897521973,2021-11-10 10:22:00,1636562264.4426434,61.732438758885785,75.97427086483286,48.70905514025607,72.95241236886221,45.37462755442454,72.95438297204161,57.668090932226356,72.95286450101713,19.490398721972014,127.40413921501917,107.82358185414502,127.40392450421143,107.82369564065444,127.40476016664827,0.0
1,1,1,experiment,standing,4,41,switch,incongruant,dashed,triangle,blue,left,left,yes,0.4701390266418457,2021-11-10 10:22:00,1636562266.275506,61.034267248825216,67.8410283983385,47.65582235883132,69.51930240669864,43.983795320771776,69.52314385017297,102.75606033244908,69.52282338253976,18.02022295833045,109.97686632677757,94.35288156183256,240.59234342336254,223.46018751423424,225.201727883609,0.0
1,1,1,experiment,standing,4,42,noswitch,incongruant,dashed,square,blue,right,right,yes,0.4466509819030761,2021-11-10 10:22:00,1636562268.109516,67.48075599454928,77.56927313024933,53.20924939200557,79.03407851503584,49.73747496830348,79.03367669084145,70.61916860296402,79.03378189577951,20.115793707995238,128.10171875178938,109.56559723725073,128.10302534024882,109.56547115311773,128.12078902454334,0.0
1,1,1,experiment,standing,4,43,noswitch,congruant,dashed,square,blue,right,right,yes,0.5366408824920654,2021-11-10 10:22:00,1636562269.9994085,65.496869438244,70.77191369522095,49.347814098814744,68.63156721852532,48.67359542519803,68.63066282989473,62.39619651327568,68.63220660854832,16.26637119703876,113.02737184929089,98.612296211026,113.02830497358067,98.6102841355801,113.03329468341046,0.0
1,1,1,experiment,standing,4,44,noswitch,congruant,dashed,square,yellow,right,right,yes,0.5369448661804199,2021-11-10 10:22:00,1636562271.8891952,72.83829613408619,76.14619532787063,52.86395756638418,81.29183028116663,44.49751662121439,81.29353417920174,63.10367684473381,81.2932510325787,17.237121177399345,128.769219777422,108.8628820674411,128.76992454099792,108.8625488724432,128.76797586631932,0.0
1,1,1,experiment,standing,4,45,noswitch,congruant,dashed,square,yellow,right,right,yes,0.4251079559326172,2021-11-10 10:22:00,1636562273.6607912,61.3622996502862,71.20848563945363,45.707263038109765,67.39597181047789,43.61869659167659,67.39553015360356,49.052365674352764,67.39286804104937,17.955625973125514,117.13183220673547,108.27144091347063,117.13274530422687,108.27039610885048,117.1335684001312,0.0
1,1,1,experiment,standing,4,46,switch,incongruant,solid,triangle,blue,left,left,yes,0.3538379669189453,2021-11-10 10:22:00,1636562275.3725832,63.01655071204926,71.78855400795932,51.68441583366256,68.78852070851875,47.38748734623237,68.7876508856359,78.48071299760495,68.78639550443545,22.71979616149786,108.56559198029629,98.5380418894662,108.56589465394313,98.53866405677907,108.56509031934173,0.0
1,1,1,experiment,standing,4,47,noswitch,congruant,solid,square,blue,left,left,yes,0.2982170581817627,2021-11-10 10:22:00,1636562277.024856,70.09951361372538,69.88152305551093,46.50918670243279,74.37970056423406,49.45420689917783,74.37968667623784,75.10269276859185,74.37847382905737,22.07969095767348,120.76642986949663,102.88412208260686,120.76511091276143,102.88304569286227,120.76886876000252,0.0
1,1,1,experiment,standing,4,48,switch,incongruant,dashed,square,yellow,right,right,yes,0.588533878326416,2021-11-10 10:22:00,1636562278.9777334,65.59178784558776,68.6853119629998,49.35571524211953,73.8891678766673,49.42074624165926,73.89038015646958,67.60600039238217,73.89115784439277,19.908556819669347,116.11243713040722,97.1585652482527,351.04867774345723,343.2904232114822,286.9362112067373,0.0
1,1,1,experiment,standing,4,49,switch,incongruant,solid,triangle,blue,left,left,yes,0.3548049926757812,2021-11-10 10:22:00,1636562280.68918,63.48688369496511,67.28605146401829,49.089599675815656,67.20803002487563,47.07565878685298,67.20781174580563,61.112293984918544,67.20809038998931,20.25173255931931,105.62304904104376,93.82284002674206,105.37137549458083,93.39260056350344,107.95467361806622,0.0
1,1,1,experiment,sitting,1,1,buffer,buffer,dashed,triangle,blue,left,left,yes,0.6455478668212891,2021-11-10 10:22:00,1636562382.3312926,61.33483302640729,131.04937187195134,73.53048989830395,76.79216730751514,91.40674229599075,76.79181439999442,91.40890472701767,76.79211828303268,91.40836333173971,193.06838090819414,222.01436992888515,1997.7127685552684,1837.2449404024699,3243.9572625812157,0.0
1,1,1,experiment,sitting,1,2,switch,congruant,solid,square,blue,left,left,yes,0.4528708457946777,2021-11-10 10:22:00,1636562384.104887,68.71641483883546,157.19218957266742,88.5435357850937,98.75804662278969,106.01814537112686,98.7588807597919,106.01955121271862,98.76019109952924,106.01641323051344,231.0913056472226,268.4671215216617,1226.487472924212,1091.4690416317071,1707.4793322440407,0.0
1,1,1,experiment,sitting,1,3,switch,congruant,dashed,triangle,blue,left,left,yes,0.6916670799255371,2021-11-10 10:22:00,1636562386.1135626,60.54749695328813,199.373384655553,111.55111182630657,115.73999025755364,135.12673668322978,115.74193765329787,135.12706950179444,115.74054528046311,135.12725677640756,285.88237034546086,332.8388485951254,1485.890120882421,1332.218895528046,2194.727498393382,0.0
1,1,1,experiment,sitting,1,4,switch,congruant,solid,triangle,blue,left,left,yes,0.4525771141052246,2021-11-10 10:22:00,1636562387.8849208,72.78961920804385,143.2037073643108,83.95781659087689,89.66408606577905,97.4721926168572,89.66447767993597,97.47158340564364,89.66170163165138,97.47085208697725,198.5084011700021,239.4466688360163,1045.0822436264152,1008.9353855570098,1523.1281653743604,0.0
1,1,1,experiment,sitting,1,5,switch,incongruant,dashed,square,yellow,right,right,yes,0.5837020874023438,2021-11-10 10:22:00,1636562389.8369884,60.73262262395048,143.46416976152568,78.52801796903422,87.93707708441714,92.44924845621152,87.93730218024982,92.4498597080108,87.93470139689852,92.44968606557185,221.04490062348873,233.63278301317015,1510.2284250057135,1302.6094078494305,2227.835666913194,0.0
1,1,1,experiment,sitting,1,6,noswitch,incongruant,dashed,triangle,blue,left,left,yes,0.7153291702270508,2021-11-10 10:22:00,1636562391.906811,65.17284349951743,140.42964707870684,84.56394187786536,89.54214088905808,97.49496983196684,89.54359566235027,97.49592081185453,89.54375175597261,97.49556874740783,191.98288010917088,252.27858479559617,1272.2953310084592,1137.5483596150798,1919.1304670017666,0.0
1,1,1,experiment,sitting,1,7,noswitch,incongruant,dashed,square,blue,right,right,yes,0.4954421520233154,2021-11-10 10:22:00,1636562393.7375286,82.8426813130392,206.83926049334218,115.36735164590078,128.48976895429894,134.35297990767603,128.48820280752383,134.35260520033896,128.48908216148251,134.34952983191425,305.8857965819644,340.89255300073927,2173.6746969748315,2033.1148661396533,3278.3847915080037,0.0
1,1,1,experiment,sitting,1,8,noswitch,incongruant,dashed,triangle,yellow,left,left,yes,1.2872560024261477,2021-11-10 10:22:00,1636562396.33854,68.94384223950655,181.9946346127838,103.32241296293964,106.14343953948075,124.87018087435997,106.14306460740808,124.87076456680514,106.14265921086458,124.87380494617015,248.36816754067888,307.20718222470435,1630.1484262334675,1535.7601743823184,2432.6682917235316,0.0
1,1,1,experiment,sitting,1,9,switch,congruant,solid,triangle,blue,left,left,yes,0.4765679836273193,2021-11-10 10:22:00,1636562398.1695766,72.25433439486837,155.6515401871922,90.0911432325634,98.77868998185994,108.91314865863447,98.77978465111529,108.91142540815707,98.77906215865352,108.91154223261314,217.78368290273195,278.8153453094045,1785.115243327332,1622.0912748432377,2759.143577473442,0.0
1,1,1,experiment,sitting,1,10,noswitch,congruant,solid,square,blue,left,left,yes,0.3181240558624267,2021-11-10 10:22:00,1636562399.8244371,81.00397001471079,208.6374075596838,112.63643381989807,125.41106297047699,134.00974598575363,125.40980145526234,134.007713535345,125.41203631240779,134.01293928275797,304.4206282474264,344.1384535361791,2136.193750809392,1873.2438271874723,3310.1443787028516,0.0
1,1,1,experiment,sitting,1,11,switch,incongruant,dashed,square,yellow,right,right,yes,0.4413268566131592,2021-11-10 10:22:00,1636562401.597172,66.94559918023991,144.67188189877405,80.31436524751216,85.27619343627457,97.76413890390972,85.27435461145554,97.76326188714003,85.27766308176908,97.76591458102483,206.14883661506678,248.73451795205781,1828.667776337737,1767.502248668827,2996.3638222818017,0.0
1,1,1,experiment,sitting,1,12,noswitch,congruant,dashed,square,blue,right,right,yes,0.6804120540618896,2021-11-10 10:22:00,1636562403.6047013,59.67596440254459,177.75097062383063,102.09891650438212,108.06228450002953,121.89923800904596,108.06382785923398,121.89940905563145,108.06048438668334,121.89747548508224,250.53310953225585,290.07667260251185,1891.70135523862,1732.9296995798313,2965.900219971965,0.0
1,1,1,experiment,sitting,1,13,noswitch,congruant,dashed,square,blue,right,right,yes,0.3837330341339111,2021-11-10 10:22:00,1636562405.317378,74.37445646139751,192.13696564684074,111.05772583194798,119.44832707122148,140.72759923646896,119.44926463053132,140.72796906813127,119.44924957552387,140.72377324735353,276.6361846920903,317.0102143186313,2079.3315761047247,1836.863145942241,3163.1170331099347,0.0
1,1,1,experiment,sitting,1,15,switch,incongruant,dashed,square,yellow,right,right,yes,0.7357192039489746,2021-11-10 10:22:00,1636562415.1587815,71.40786702658902,163.9454271008564,91.4350931849651,98.81295753355519,108.26698915057783,98.81354315814723,108.265480912185,98.81359669911545,108.26938934674465,238.70223337667463,278.950148572426,1443.4468599851132,1324.5250151576308,2192.153945618629,0.0
1,1,1,experiment,sitting,1,16,switch,congruant,solid,triangle,yellow,right,right,yes,0.4057729244232178,2021-11-10 10:22:00,1636562416.928748,70.04831694796547,149.13430416602617,93.62009696158503,95.85656568601588,108.00364696871159,95.85593344361357,108.00326968011731,95.85762664942776,108.00426913432541,200.7060802579502,237.7321351732089,1138.0873741676642,1084.601411908821,1622.00674159883,0.0
1,1,1,experiment,sitting,1,17,switch,congruant,dashed,square,blue,left,right,no,1.047456979751587,2021-11-10 10:22:00,1636562419.2926629,74.2781900466545,191.90850722519488,110.45044385923023,121.44546418739272,126.11654942557537,121.44557802264842,126.11777847988914,121.44501621412647,126.11721950615446,272.1808946171503,322.4561243336522,2130.585604579991,1974.7206954815235,3262.686640543838,0.0
1,1,1,experiment,sitting,1,18,noswitch,incongruant,dashed,triangle,blue,left,left,yes,0.9508271217346193,2021-11-10 10:22:00,1636562426.597196,63.965062667361664,137.59107709516297,79.59997862871487,91.71162910575553,97.90708605201081,91.71007677339884,97.90638866559776,91.7212628830946,97.90646950870384,198.28125502719809,235.1212548646628,734.5460578421125,630.701317822555,941.272530363359,0.0
1,1,1,experiment,sitting,1,19,noswitch,congruant,dashed,triangle,yellow,left,left,yes,0.3382802009582519,2021-11-10 10:22:00,1636562428.2505612,72.41967399991545,148.23297822570967,95.0362263244528,107.78051019598193,114.80298232273083,107.78273543504974,114.8041176493378,107.78171575391943,114.80361967757946,203.4051382820989,252.19018649242037,779.7290348339614,762.7131405812152,996.9172964812398,0.0
1,1,1,experiment,sitting,1,20,noswitch,congruant,dashed,triangle,blue,left,left,yes,0.3265531063079834,2021-11-10 10:22:00,1636562429.9032507,61.70938918465558,164.31584639107606,97.97305490050323,107.11646781493438,121.0091592394289,107.11566118677077,121.00937951747837,107.11612460939128,121.0131694128481,226.90039997527293,280.71578064547765,769.1011723539165,676.8889120473309,1026.6938834436821,0.0
1,1,1,experiment,sitting,1,21,switch,incongruant,solid,triangle,yellow,right,right,yes,0.4816150665283203,2021-11-10 10:22:00,1636562431.739771,71.78909328001932,192.87923777808373,109.91606646094905,121.16824279196375,139.94782359307845,121.16935839970999,139.94553457203182,121.16929165448006,139.94487639339064,271.5579945835357,329.2922875084207,1503.8325316715436,1439.220058411025,2169.020801275456,0.0
1,1,1,experiment,sitting,1,22,switch,incongruant,dashed,triangle,blue,left,left,yes,0.7475030422210693,2021-11-10 10:22:00,1636562433.8071356,73.04326606110048,144.35996635788223,88.56904150407196,101.22871274150809,106.27241956982056,101.23002715944698,106.27215267747474,101.22844694626176,106.27264893770776,205.90535794645328,246.0914970245905,874.938561887781,829.3601249680765,1220.855128995993,0.0
1,1,1,experiment,sitting,1,23,switch,incongruant,solid,square,yellow,right,right,yes,0.4951508045196533,2021-11-10 10:22:00,1636562435.636318,63.62343454764159,141.39000937171696,83.96127057570071,89.12811317760234,104.59819555363738,89.12710225061772,104.59938632256166,89.12774933385091,104.59776351625968,194.69554967045136,241.07971167737824,649.2611789322286,664.8125562381459,818.3440970213088,0.0
1,1,1,experiment,sitting,1,24,noswitch,congruant,solid,square,yellow,right,right,yes,0.3340401649475097,2021-11-10 10:22:00,1636562437.3483684,72.45679093504188,140.5585179325667,78.89975218506467,88.55539948132012,101.19545254787127,88.55544923656738,101.19494615489593,88.55839867270355,101.1956785108543,201.2523504856651,254.07591619030356,1046.937906645732,907.1873435881811,1524.5711129433848,0.0
1,1,1,experiment,sitting,1,25,switch,congruant,dashed,square,yellow,right,right,yes,0.4910979270935058,2021-11-10 10:22:00,1636562439.1793969,79.11649098740575,124.0156859163094,86.89636834750647,90.97028666484141,103.79847555453972,90.97203322319072,103.79784148075795,90.96991538500549,103.80144141396636,152.31950578285975,218.04999132323897,394.32393005074994,953.5000099964385,436.4037715614332,0.0
1,1,1,experiment,sitting,1,27,switch,congruant,solid,triangle,yellow,right,right,yes,1.366569995880127,2021-11-10 10:22:00,1636562449.6089563,60.396993377523756,150.17034908722223,91.48121079494393,98.226185472429,110.15519671346176,98.22590345538225,110.15414235129418,98.22658601168038,110.15462394309121,204.10003123680468,251.64524078803058,1500.7513828764947,1251.9182178326582,2205.2805518497817,0.0
1,1,1,experiment,sitting,1,28,noswitch,incongruant,solid,triangle,blue,left,left,yes,0.4171650409698486,2021-11-10 10:22:00,1636562451.3794503,55.72609194172664,139.6894335388435,81.42914458930869,96.09962989494213,110.15270419269893,805.2430427562574,110.14947807922688,856.1134375300268,110.15059505645573,189.23319899164173,251.5393212466627,1165.8525866520126,1190.690100485637,1547.5902766471474,0.0
1,1,1,experiment,sitting,1,29,noswitch,incongruant,solid,triangle,yellow,right,right,yes,0.6964759826660156,2021-11-10 10:22:00,1636562453.448658,58.024343751281435,95.08079034684681,61.4694314856682,76.50585320404748,83.38550269674793,550.9483989429098,83.38664995355589,665.0560410704634,83.3866155402686,116.69612991273789,189.77002341488154,169.62894268409877,266.62974865784264,156.6212830539565,0.0
1,1,1,experiment,sitting,1,30,noswitch,incongruant,solid,square,blue,left,left,yes,0.3965420722961426,2021-11-10 10:22:00,1636562455.1608202,63.34941391730155,79.78101649552228,55.080711125765994,62.81095176162519,73.36980072228204,839.9656715290196,73.37230778689408,927.8509739499355,73.3728282293883,109.12899118995196,149.1267341266441,178.8934615439528,228.74672658949171,157.02969675990903,0.0
1,1,1,experiment,sitting,1,31,switch,congruant,dashed,triangle,yellow,left,left,yes,0.736799955368042,2021-11-10 10:22:00,1636562457.227805,56.29843735921032,80.75241856466126,50.679120914525626,70.5665299877868,65.8625728719302,423.9890906496876,65.86303739634259,489.2708745877251,65.86382396709016,111.75631014040418,166.94653723855205,156.97096773680403,591.5154999368442,151.03812824461707,0.0
1,1,1,experiment,sitting,1,32,switch,incongruant,solid,square,yellow,right,right,yes,0.9049689769744872,2021-11-10 10:22:00,1636562459.4771397,58.5259571467571,86.27280522799255,54.719909935528925,77.5993055124334,88.01832693294939,444.09313361949035,88.01851883499427,601.2649788117178,88.01759080832812,110.84931922255251,176.21532994324997,179.111030872565,259.9161592163809,162.76766439186852,0.0
1,1,1,experiment,sitting,1,33,noswitch,congruant,solid,square,yellow,right,right,yes,0.3398451805114746,2021-11-10 10:22:00,1636562461.188481,61.269160826899544,156.47577722115327,87.54877178778655,98.62126134675192,115.74612218810837,98.23198221813497,115.74748249789263,115.93353409515771,115.74669061540745,225.91122925665078,266.0020520615855,1083.4973452619745,929.3471534179463,1554.3842986633365,0.0
1,1,1,experiment,sitting,1,34,noswitch,congruant,solid,square,yellow,right,right,yes,0.3907358646392822,2021-11-10 10:22:00,1636562462.9608526,61.88981500185896,165.13211458287117,98.4700581295545,114.71989907568651,121.30534591342654,114.71998614910576,121.30408095828591,114.70508068332398,121.30936849979963,243.0458219845948,269.0204601498316,810.840021944619,709.0083642153018,1069.8365876042556,0.0
1,1,1,experiment,sitting,1,35,switch,incongruant,dashed,triangle,yellow,left,left,yes,0.7683560848236084,2021-11-10 10:22:00,1636562465.091518,55.240895437239,150.02683361823085,87.5947678635862,102.38586153029729,112.30082366975596,102.38622040115916,112.30141866202126,102.38901753729446,112.30255628927209,210.44371876570818,248.94904145008078,1430.5573488602822,1300.3757735757974,2080.8955672164866,0.0
1,1,1,experiment,sitting,1,36,noswitch,incongruant,dashed,square,yellow,right,right,yes,0.5915260314941406,2021-11-10 10:22:00,1636562467.04078,65.5681420160845,144.76689380163955,87.97626549394992,102.7181694968137,106.68426467470246,102.72090675323749,106.68634681483258,102.71985721931568,106.68193390389015,200.0025755044192,247.93806734720172,788.6967107878785,711.2095055383189,1011.5689283642253,0.0
1,1,1,experiment,sitting,1,37,noswitch,incongruant,dashed,triangle,yellow,left,left,yes,0.5259110927581787,2021-11-10 10:22:00,1636562468.9355354,67.35891660960272,93.15001158765534,66.44450860914164,72.02034015967793,79.93981474459446,72.02129511615748,79.93896051170952,72.02176728640528,79.94036540433672,108.9957489729874,185.45970107334958,210.4937954255116,287.06055797192334,187.08916405799056,0.0
1,1,1,experiment,sitting,1,38,noswitch,congruant,dashed,triangle,blue,left,left,yes,0.5675339698791504,2021-11-10 10:22:00,1636562470.8237872,60.67736354620073,160.9854959304165,90.35431866127288,114.52666902427484,111.00204504901784,114.52820763167682,111.00328885431239,114.52672626487741,111.00258932431501,237.0540591906825,266.725999820359,740.1046653617196,620.9209105948174,953.5147367171978,0.0
1,1,1,experiment,sitting,1,39,switch,congruant,solid,triangle,blue,left,left,yes,0.4191479682922363,2021-11-10 10:22:00,1636562472.5938735,64.77666500273439,172.4799724587952,100.82474682908648,119.72374144061085,127.80736487078367,119.72568981578617,127.8064972009398,119.7241763818482,127.80890119402784,244.1619599789022,270.4091515864505,1455.107606722249,1248.1862579048116,2177.555812826163,0.0
1,1,1,experiment,sitting,1,40,noswitch,congruant,solid,square,blue,left,left,yes,0.4756159782409668,2021-11-10 10:22:00,1636562474.424728,57.096275873064954,163.5345516593908,99.16063684824242,117.30897117720055,130.92460234578854,117.30759256433036,130.9238573792697,117.30889143615254,130.92559088954232,226.0157946215011,266.37899872585865,1793.0725613054651,1566.683215049745,2801.9587240166866,0.0
1,1,1,experiment,sitting,1,42,switch,incongruant,solid,triangle,blue,left,left,yes,0.679908037185669,2021-11-10 10:22:00,1636562484.2011657,59.13179506195284,88.4686742611432,59.9941640230704,69.39340359748923,82.5900663952724,572.7722560627356,82.59200893927837,822.5164572832846,82.59071801468909,99.98694926869112,181.59254060058143,173.73328341005515,273.2637026770715,153.22377524661894,0.0
1,1,1,experiment,sitting,1,43,noswitch,congruant,solid,square,blue,left,left,yes,0.4457240104675293,2021-11-10 10:22:00,1636562485.9726863,63.15850453741085,100.34796247273543,68.54463433523733,74.20806607338832,89.46181557693558,74.7458012385191,89.46312119849311,100.41877597542475,89.46018381660059,111.7043000537228,202.02588159699204,177.75924764178575,290.2309069742439,159.19881352987727,0.0
1,1,1,experiment,sitting,1,44,switch,incongruant,dashed,square,yellow,right,right,yes,0.5324249267578125,2021-11-10 10:22:00,1636562487.8645887,59.88182435960507,123.28932087979332,76.68140110263093,79.1944138347428,98.92616430836904,79.19496443554958,98.92575762457442,79.21368009960113,98.92534693869119,156.5678211599835,236.25185429705414,549.8794680789642,904.4732140640684,732.7105013826128,0.0
1,1,1,experiment,sitting,1,45,switch,incongruant,solid,triangle,blue,left,left,yes,0.3943018913269043,2021-11-10 10:22:00,1636562489.5759263,61.5076410785487,132.90062989430388,77.7444378513933,89.25503923469776,98.45375148523432,89.25578909955047,98.4514963300026,89.25476694416815,98.45242255284874,181.31244013457328,241.72668415234534,1225.5738002487406,1403.3646445679683,1730.3853598862222,0.0
1,1,1,experiment,sitting,1,46,noswitch,incongruant,solid,triangle,yellow,right,right,yes,0.4034781455993652,2021-11-10 10:22:00,1636562491.3464825,61.52542560163809,139.1150599323634,87.02321548202168,99.6105908325541,112.19454970820937,99.61133259910675,112.19453369141269,99.6113069918307,112.193425770712,189.69693650003595,223.35507789485533,1258.4907969515743,1693.602764527564,1880.2163226110436,0.0
1,1,1,experiment,sitting,1,47,noswitch,congruant,solid,square,yellow,right,right,yes,0.5532739162445068,2021-11-10 10:22:00,1636562493.2362237,61.094029719537936,158.0145554592171,85.91723270121307,104.35589905897835,113.44426622627327,104.35781430447427,113.44401990168927,104.35918667060658,113.44464320831133,226.54558296126334,297.01086223153385,707.1429530448199,1161.612854083466,978.7322448914668,0.0
1,1,1,experiment,sitting,1,48,noswitch,congruant,solid,triangle,yellow,right,right,yes,0.46828293800354,2021-11-10 10:22:00,1636562495.0675476,64.18613877312411,102.5904739073961,67.80195625988766,75.45207308642607,85.59900891497293,75.45476429668584,85.60116385358566,75.45332752806945,85.60528994348539,126.69762368807557,202.27245341957718,231.685424342735,319.0602249295838,211.03157946377718,0.0
1,1,1,experiment,sitting,1,49,switch,incongruant,dashed,triangle,yellow,left,left,yes,0.9294719696044922,2021-11-10 10:22:00,1636562497.3139338,57.40535658082318,123.00393016732646,76.17227186691996,81.43686829807127,90.45710801503017,81.43582793888433,90.4558818749063,81.43433629279873,90.45651837290836,162.57042539008174,229.42867998321515,281.1803086999157,547.3907623271078,310.71530283036816,0.0
1,1,1,experiment,sitting,2,1,buffer,buffer,dashed,triangle,yellow,left,left,yes,0.5107388496398926,2021-11-10 10:22:00,1636562507.7318103,67.25617918046085,100.07906295433423,67.39179861664475,75.87482941715413,84.64024927920481,749.1267789649602,84.63948920042061,926.6429245341812,84.6416790123037,126.48722075931875,186.26470618969648,808.0255684102698,898.6636317055944,1220.3249896822467,0.0
1,1,1,experiment,sitting,2,2,switch,incongruant,solid,triangle,yellow,right,right,yes,0.7199690341949463,2021-11-10 10:22:00,1636562509.7998104,63.34640167291658,135.32034919754432,83.93129260000262,90.54562869423602,103.94724118722391,90.79844738287858,103.94679864665608,110.22914496524692,103.94819612592313,171.89323529556788,246.64490343922188,1027.4812277624742,1281.928910530613,1407.8868393476123,0.0
1,1,1,experiment,sitting,2,3,noswitch,incongruant,solid,triangle,blue,left,left,yes,0.5101029872894287,2021-11-10 10:22:00,1636562511.6298816,62.45807540854036,116.58316887658935,77.4386177270015,84.18134675253017,97.53669342070485,84.18176195609831,97.5375447214643,84.19134130010954,97.5371153999733,155.64427687475768,199.6212228017437,921.3773569045113,929.524977682915,1376.9884688717748,0.0
1,1,1,experiment,sitting,2,4,noswitch,congruant,solid,triangle,blue,left,left,yes,0.986886978149414,2021-11-10 10:22:00,1636562513.934241,75.51626268303413,121.62711258989877,87.45943740133144,94.74441274833234,109.30241122790493,94.7458748687332,109.30191826124629,94.74521241632368,109.30074835900851,134.20905671158064,231.32919913609862,266.3152658793396,354.49242207682744,287.29734736328027,0.0
1,1,1,experiment,sitting,2,5,noswitch,congruant,solid,square,blue,left,left,yes,0.4543771743774414,2021-11-10 10:22:00,1636562515.706432,55.104278350527125,114.75680599389705,71.97457816558851,77.10334176468355,88.25731120404004,77.105234574854,88.2575737037551,77.10632758576733,88.25796636768904,144.66337588270684,223.7140388628492,339.71931633911237,367.4753538456009,398.0415925589317,0.0
1,1,1,experiment,sitting,2,6,noswitch,incongruant,solid,square,yellow,right,right,yes,1.0745439529418943,2021-11-10 10:22:00,1636562518.1284227,68.2320121835188,156.06218577739088,98.8626199139518,109.90643548216718,119.74786239601936,109.90647099722119,119.74495021823353,109.90602105815897,119.74511790877295,204.25554732593844,284.2573726686649,657.3774327796554,827.8331216689086,822.4020745950291,0.0
1,1,1,experiment,sitting,2,7,switch,incongruant,dashed,triangle,blue,left,left,yes,0.4370319843292236,2021-11-10 10:22:00,1636562519.898373,56.51458400493582,117.38043355490362,70.02995969789407,90.14542815961883,87.07084124932456,90.14339160273698,87.07227870988781,90.14228947590128,87.06954489445896,160.2133329786934,226.39542467917232,362.5575358276935,844.423584383503,393.2382426086122,0.0
1,1,1,experiment,sitting,2,8,noswitch,incongruant,dashed,square,blue,right,right,yes,1.0590291023254397,2021-11-10 10:22:00,1636562522.326529,64.77657166133037,142.5102938748362,86.42211742901179,95.02146402819527,117.07509436081413,95.02371636806537,117.07657092470339,95.02176705323083,117.07240912592634,192.78915021249605,241.7707069389571,1090.59985092904,988.8992370880222,1576.45711240065,0.0
1,1,1,experiment,sitting,2,9,noswitch,congruant,dashed,square,blue,right,right,yes,0.7252919673919678,2021-11-10 10:22:00,1636562524.3932788,51.24844629737939,174.1086082952045,102.62482551579491,114.03664347619778,130.15763155539105,440.6063341215119,130.15958853854804,712.8466338829357,130.15761612507026,229.7629241726961,302.537598357157,809.7550447531316,781.086231050426,1067.7366052904858,0.0
1,1,1,experiment,sitting,2,10,switch,congruant,solid,triangle,yellow,right,right,yes,0.9675211906433104,2021-11-10 10:22:00,1636562526.701161,65.14986849736374,174.60041941427284,96.7578775404958,116.4855025027348,119.15054010124534,117.174380944676,119.15235302092165,138.08296998937942,119.14980804347694,251.41466104373742,304.6938991080189,853.5765606821083,779.715795592279,1089.4276941124672,0.0
1,1,1,experiment,sitting,2,11,noswitch,incongruant,solid,triangle,blue,left,left,yes,0.7032558917999268,2021-11-10 10:22:00,1636562528.7732637,67.04051868612706,137.25254232793623,84.68535340193993,99.13147286674597,93.07841343119387,99.13179906046317,93.07949591202889,99.12949532631175,93.0787671280648,188.9144558028745,228.06172107479927,649.0880871343296,488.38367779291366,905.9755716327171,0.0
1,1,1,experiment,sitting,2,13,switch,congruant,solid,square,yellow,right,right,yes,0.6353421211242676,2021-11-10 10:22:00,1636562538.5527534,68.47665922305461,151.40047913795473,92.385074392515,95.95457726601032,115.51397450318376,95.95598631780116,115.51435436648391,95.95321181946886,115.51495447724133,206.66036299401298,252.22716350916215,1014.8246838732846,866.8904792682947,1472.2803191312516,0.0
1,1,1,experiment,sitting,2,14,switch,incongruant,dashed,triangle,blue,left,left,yes,0.882904052734375,2021-11-10 10:22:00,1636562540.8005323,74.93519716842862,138.1144381288789,86.50892123612029,90.80114780025482,110.79642148586194,90.8023751441278,110.79520094748771,90.79929009450242,110.79575523667098,178.4151730764922,251.35493365637382,714.5900534343019,1121.8709296760487,946.9434847426791,0.0
