participant,session,condition,trialType,posture,blockNum,trialNum,switchTrialType,congruantTrialType,cueType,shapeType,shapeColor,response,correctResponse,correct,reactionTime,date,utcTime,jointHeadDisplacement,jointTorsoDisplacement
1,1,1,experiment,standing,1,1,buffer,buffer,solid,square,blue,right,left,no,0.9088129997253418,2021-11-10 10:22:00,1636561737.1790671,2.351384015333454,2.3180805576694175
1,1,1,experiment,standing,1,2,noswitch,congruant,solid,square,blue,left,left,yes,0.5947349071502686,2021-11-10 10:22:00,1636561744.1281517,2.605028246921876,2.663512789849977
1,1,1,experiment,standing,1,3,switch,incongruant,dashed,square,blue,right,right,yes,0.7084870338439941,2021-11-10 10:22:00,1636561746.1949935,2.7692425121449764,2.3050617773447173
1,1,1,experiment,standing,1,4,noswitch,congruant,dashed,square,blue,right,right,yes,0.5995199680328369,2021-11-10 10:22:00,1636561748.139821,2.427088566573921,2.1256075076103156
1,1,1,experiment,standing,1,5,noswitch,congruant,dashed,square,yellow,right,right,yes,0.4399409294128418,2021-11-10 10:22:00,1636561749.9110022,2.745208280880419,2.4425032348778766
1,1,1,experiment,standing,1,6,noswitch,congruant,dashed,square,yellow,right,right,yes,0.38472580909729,2021-11-10 10:22:00,1636561751.62303,2.7852402432992016,2.2883537064066095
1,1,1,experiment,standing,1,7,switch,incongruant,solid,triangle,blue,left,left,yes,0.4641029834747314,2021-11-10 10:22:00,1636561753.4547527,2.732873190785238,2.3618042709778506
1,1,1,experiment,standing,1,8,noswitch,incongruant,solid,square,yellow,right,right,yes,0.2919869422912597,2021-11-10 10:22:00,1636561755.1092012,2.594300262926068,2.3413948387658285
1,1,1,experiment,standing,1,9,switch,congruant,dashed,square,yellow,right,right,yes,0.3981409072875976,2021-11-10 10:22:00,1636561756.879166,2.350585272296937,1.959494462608711
1,1,1,experiment,standing,1,10,noswitch,congruant,dashed,square,blue,right,right,yes,0.6441290378570557,2021-11-10 10:22:00,1636561758.8879952,2.181849372276178,2.0591966157954587
1,1,1,experiment,standing,1,11,noswitch,congruant,dashed,square,blue,right,right,yes,0.4062240123748779,2021-11-10 10:22:00,1636561760.6586635,2.49082287903615,2.1044263773472833
1,1,1,experiment,standing,1,12,switch,incongruant,solid,triangle,blue,left,left,yes,0.55538010597229,2021-11-10 10:22:00,1636561762.5475094,2.4991422430538837,2.125370084822295
1,1,1,experiment,standing,1,13,noswitch,congruant,solid,triangle,blue,left,left,yes,0.5672109127044678,2021-11-10 10:22:00,1636561764.4361224,2.849473689869797,2.342751500419827
1,1,1,experiment,standing,1,14,switch,congruant,dashed,triangle,yellow,left,left,yes,0.595412015914917,2021-11-10 10:22:00,1636561766.3863475,2.2483506095158297,2.111824155741763
1,1,1,experiment,standing,1,15,noswitch,congruant,dashed,triangle,blue,left,left,yes,1.1515820026397705,2021-11-10 10:22:00,1636561768.86718,2.5838072282054956,2.3923728425515627
1,1,1,experiment,standing,1,16,noswitch,incongruant,dashed,square,yellow,right,right,yes,0.5277268886566162,2021-11-10 10:22:00,1636561770.7590306,2.2720528827039446,2.3221905125134783
1,1,1,experiment,standing,1,17,switch,incongruant,solid,triangle,blue,timeout,left,no,,2021-11-10 10:22:00,1636561773.4788444,3.0606197969382563,2.820063812294562
1,1,1,experiment,standing,1,18,noswitch,incongruant,solid,triangle,yellow,timeout,right,no,,2021-11-10 10:22:00,1636561781.2459164,3.5894792944351073,2.6077044805811416
1,1,1,experiment,standing,1,19,switch,incongruant,dashed,triangle,blue,left,left,yes,1.083976984024048,2021-11-10 10:22:00,1636561788.6607623,2.3419053625265254,2.2532621153309638
1,1,1,experiment,standing,1,20,switch,congruant,solid,square,blue,right,left,no,0.6902868747711182,2021-11-10 10:22:00,1636561790.7282128,2.70976902301035,2.4322851753356893
1,1,1,experiment,standing,1,21,switch,congruant,dashed,triangle,yellow,timeout,left,no,,2021-11-10 10:22:00,1636561798.4995005,2.417918814059679,2.3187017758203683
1,1,1,experiment,standing,1,22,switch,incongruant,solid,square,yellow,right,right,yes,0.5158069133758545,2021-11-10 10:22:00,1636561805.3881624,2.2151186340655116,2.1177155873150126
1,1,1,experiment,standing,1,23,switch,incongruant,dashed,triangle,yellow,left,left,yes,0.627094030380249,2021-11-10 10:22:00,1636561807.3360507,2.354538905766513,2.4144993960512937
1,1,1,experiment,standing,1,24,switch,incongruant,solid,square,yellow,right,right,yes,0.6092419624328613,2021-11-10 10:22:00,1636561809.2876415,2.6879651028036458,2.147094426627741
1,1,1,experiment,standing,1,25,switch,incongruant,dashed,triangle,blue,left,left,yes,0.8300001621246338,2021-11-10 10:22:00,1636561811.4764357,2.1944580055807332,2.228049165147659
1,1,1,experiment,standing,1,26,switch,incongruant,solid,triangle,yellow,right,right,yes,0.510948896408081,2021-11-10 10:22:00,1636561813.3691957,2.2826537205202815,2.520396125187922
1,1,1,experiment,standing,1,27,switch,incongruant,dashed,triangle,blue,left,left,yes,0.5243198871612549,2021-11-10 10:22:00,1636561815.2614267,2.334327260966189,2.224968330477688
1,1,1,experiment,standing,1,28,noswitch,incongruant,dashed,square,blue,right,right,yes,0.4763360023498535,2021-11-10 10:22:00,1636561817.09525,2.495579329224326,2.058091714023651
1,1,1,experiment,standing,1,29,switch,congruant,solid,triangle,yellow,right,right,yes,0.6579949855804443,2021-11-10 10:22:00,1636561819.1031158,2.6642054333561123,2.3318189379535172
1,1,1,experiment,standing,1,30,noswitch,incongruant,solid,triangle,blue,left,left,yes,0.438060998916626,2021-11-10 10:22:00,1636561820.875648,2.6626554793981425,2.5814597335867373
1,1,1,experiment,standing,1,31,switch,congruant,dashed,triangle,yellow,left,left,yes,0.3776650428771972,2021-11-10 10:22:00,1636561822.5879862,2.4150288337959362,1.985542993714714
1,1,1,experiment,standing,1,32,noswitch,incongruant,dashed,square,yellow,right,right,yes,0.680729866027832,2021-11-10 10:22:00,1636561824.6562614,2.392201702995399,2.032999221492907
1,1,1,experiment,standing,1,33,switch,congruant,solid,triangle,yellow,right,right,yes,0.5053868293762207,2021-11-10 10:22:00,1636561826.4857872,2.538280577062009,2.3531273257607515
1,1,1,experiment,standing,1,34,noswitch,congruant,solid,triangle,yellow,right,right,yes,0.6477999687194824,2021-11-10 10:22:00,1636561828.4941642,2.5405637615616654,2.0230589869368742
1,1,1,experiment,standing,1,35,switch,incongruant,dashed,triangle,blue,left,left,yes,0.7487850189208984,2021-11-10 10:22:00,1636561830.5609598,2.4626991329468546,2.3633798858151596
1,1,1,experiment,standing,1,36,switch,incongruant,solid,square,yellow,right,right,yes,0.8563470840454102,2021-11-10 10:22:00,1636561832.7458172,2.2588353742322185,2.167549667979657
1,1,1,experiment,standing,1,37,noswitch,incongruant,solid,square,blue,left,left,yes,1.092216968536377,2021-11-10 10:22:00,1636561835.1689143,2.5436156710173488,2.3196042433411335
1,1,1,experiment,standing,1,38,noswitch,incongruant,solid,triangle,yellow,right,right,yes,0.7904999256134033,2021-11-10 10:22:00,1636561837.2953875,2.4919506078956313,2.366299379544647
1,1,1,experiment,standing,1,39,noswitch,incongruant,solid,triangle,blue,left,left,yes,0.4217410087585449,2021-11-10 10:22:00,1636561839.0715208,2.2980408943507196,2.2059361015912278
1,1,1,experiment,standing,1,40,noswitch,incongruant,solid,square,yellow,right,right,yes,0.5859959125518799,2021-11-10 10:22:00,1636561841.0211515,2.58814753541726,2.3949798302727543
1,1,1,experiment,standing,1,41,switch,congruant,dashed,square,yellow,right,right,yes,0.7687389850616455,2021-11-10 10:22:00,1636561843.1450176,2.349203092367955,2.391476909256114
1,1,1,experiment,standing,1,42,noswitch,congruant,dashed,square,blue,right,right,yes,0.5280640125274658,2021-11-10 10:22:00,1636561845.0358682,2.2086482711973345,2.4581632878381967
1,1,1,experiment,standing,1,43,switch,congruant,solid,square,yellow,right,right,yes,0.7229390144348145,2021-11-10 10:22:00,1636561847.1041064,2.5300077984829366,2.459793407278484
1,1,1,experiment,standing,1,44,noswitch,incongruant,solid,square,blue,right,left,no,0.6177389621734619,2021-11-10 10:22:00,1636561849.0527363,2.8566026626478283,2.519808940878883
1,1,1,experiment,standing,1,45,noswitch,congruant,solid,square,blue,left,left,yes,1.4588608741760254,2021-11-10 10:22:00,1636561856.8266144,2.3186288537975823,2.2604417528613117
1,1,1,experiment,standing,1,46,switch,congruant,dashed,triangle,yellow,left,left,yes,0.5210740566253662,2021-11-10 10:22:00,1636561858.6565504,2.4146845066975313,2.4463671676838143
1,1,1,experiment,standing,1,47,noswitch,congruant,dashed,triangle,yellow,left,left,yes,0.4004201889038086,2021-11-10 10:22:00,1636561860.3680089,1.9850575976418494,1.8177192657891268
1,1,1,experiment,standing,1,48,noswitch,congruant,dashed,triangle,blue,left,left,yes,0.4413750171661377,2021-11-10 10:22:00,1636561862.1410365,2.568059685055022,2.2420938016353844
1,1,1,experiment,standing,1,49,switch,congruant,solid,square,blue,left,left,yes,0.4061441421508789,2021-11-10 10:22:00,1636561863.9132836,2.525543791197849,1.9966103346210415
1,1,1,experiment,standing,2,1,buffer,buffer,dashed,square,yellow,right,right,yes,0.7839510440826416,2021-11-10 10:22:00,1636561917.388801,1.4278345604457265,1.6459976137977086
1,1,1,experiment,standing,2,2,switch,congruant,solid,triangle,yellow,right,right,yes,1.0284171104431152,2021-11-10 10:22:00,1636561919.7517018,1.2343398292632035,1.4212094242239182
1,1,1,experiment,standing,2,3,switch,congruant,dashed,square,yellow,right,right,yes,0.9222869873046876,2021-11-10 10:22:00,1636561922.0577283,1.3546788992760888,1.656157251033284
1,1,1,experiment,standing,2,4,noswitch,congruant,dashed,square,blue,right,right,yes,0.4736409187316894,2021-11-10 10:22:00,1636561923.8867726,1.6200579329764007,1.691571308779529
1,1,1,experiment,standing,2,5,noswitch,congruant,dashed,square,blue,right,right,yes,0.3887879848480224,2021-11-10 10:22:00,1636561925.657766,1.8416604411066884,1.518603218331444
1,1,1,experiment,standing,2,6,noswitch,incongruant,dashed,triangle,blue,left,left,yes,0.5810389518737793,2021-11-10 10:22:00,1636561927.6112788,1.689077651149067,1.5900069916872919
1,1,1,experiment,standing,2,7,noswitch,incongruant,dashed,square,yellow,right,right,yes,0.4541401863098144,2021-11-10 10:22:00,1636561929.44476,1.5994601359402019,1.8286602681053834
1,1,1,experiment,standing,2,8,switch,congruant,solid,triangle,yellow,right,right,yes,0.4644818305969238,2021-11-10 10:22:00,1636561931.2752523,1.6336923273292463,1.8522558458373157
1,1,1,experiment,standing,2,9,switch,congruant,dashed,square,blue,right,right,yes,0.7307100296020508,2021-11-10 10:22:00,1636561933.3428702,1.724239915249068,1.7800458935308017
1,1,1,experiment,standing,2,10,switch,incongruant,solid,square,blue,left,left,yes,0.8824119567871094,2021-11-10 10:22:00,1636561935.5887856,1.7116568062521111,1.9512779880378814
1,1,1,experiment,standing,2,11,switch,incongruant,dashed,square,blue,right,right,yes,1.3175601959228516,2021-11-10 10:22:00,1636561938.2560906,1.7232544794451878,1.8003042257207094
1,1,1,experiment,standing,2,12,noswitch,incongruant,dashed,triangle,blue,left,left,yes,0.9148540496826172,2021-11-10 10:22:00,1636561940.5012398,1.700357497856714,1.6907733650025953
1,1,1,experiment,standing,2,13,switch,congruant,solid,square,blue,left,left,yes,1.3117539882659912,2021-11-10 10:22:00,1636561943.1601386,1.8812050304265049,2.046171099685896
1,1,1,experiment,standing,2,14,noswitch,congruant,solid,square,blue,left,left,yes,0.7090520858764648,2021-11-10 10:22:00,1636561945.2274325,1.8604162993389253,1.5885609390730004
1,1,1,experiment,standing,2,15,noswitch,incongruant,solid,triangle,yellow,right,right,yes,0.7835710048675537,2021-11-10 10:22:00,1636561947.354957,1.6663391198806101,1.7127211573986476
1,1,1,experiment,standing,2,16,noswitch,incongruant,solid,triangle,blue,left,left,yes,0.467357873916626,2021-11-10 10:22:00,1636561949.1837354,1.8617904117797752,1.797791881194702
1,1,1,experiment,standing,2,17,noswitch,congruant,solid,triangle,blue,left,left,yes,0.4625530242919922,2021-11-10 10:22:00,1636561950.9548662,1.6618322595601989,1.7336604162643425
1,1,1,experiment,standing,2,18,switch,incongruant,dashed,square,yellow,right,right,yes,1.3376290798187256,2021-11-10 10:22:00,1636561953.6752326,1.9596597123102792,1.9150500751282724
1,1,1,experiment,standing,2,19,noswitch,incongruant,dashed,triangle,yellow,left,left,yes,1.0733211040496826,2021-11-10 10:22:00,1636561956.1013963,2.1074937844267754,1.9782415018595891
1,1,1,experiment,standing,2,20,noswitch,incongruant,dashed,square,blue,right,right,yes,0.5002808570861816,2021-11-10 10:22:00,1636561957.9314878,2.0866679621583395,2.0254944236037002
1,1,1,experiment,standing,2,21,noswitch,congruant,dashed,square,yellow,right,right,yes,1.2272870540618896,2021-11-10 10:22:00,1636561960.531842,1.9835199245971176,1.9618803865844907
1,1,1,experiment,standing,2,22,switch,incongruant,solid,triangle,blue,left,left,yes,0.4705238342285156,2021-11-10 10:22:00,1636561962.3638797,2.1277727809451767,1.993483345432577
1,1,1,experiment,standing,2,23,noswitch,incongruant,solid,square,yellow,right,right,yes,0.9644570350646972,2021-11-10 10:22:00,1636561964.670819,1.8596587469357981,1.894590662747796
1,1,1,experiment,standing,2,24,switch,congruant,dashed,square,yellow,right,right,yes,0.775568962097168,2021-11-10 10:22:00,1636561966.7970414,1.9603426469198157,1.9023038034944106
1,1,1,experiment,standing,2,25,switch,congruant,solid,square,yellow,right,right,yes,1.0083749294281006,2021-11-10 10:22:00,1636561969.1595964,2.456937596817322,1.8841627807402574
1,1,1,experiment,standing,2,26,noswitch,congruant,solid,square,yellow,right,right,yes,1.4053590297698977,2021-11-10 10:22:00,1636561971.9370456,1.7827743953904382,2.098020852223791
1,1,1,experiment,standing,2,27,noswitch,congruant,solid,square,yellow,right,right,yes,0.408607006072998,2021-11-10 10:22:00,1636561973.708147,1.6485203090225473,1.7016906660690727
1,1,1,experiment,standing,2,28,switch,incongruant,dashed,triangle,yellow,left,left,yes,0.660452127456665,2021-11-10 10:22:00,1636561975.7208369,1.780400241436361,1.7218314267525292
1,1,1,experiment,standing,2,29,switch,incongruant,solid,square,yellow,right,right,yes,0.9260210990905762,2021-11-10 10:22:00,1636561978.024411,1.6795091477178117,1.7579450201503082
1,1,1,experiment,standing,2,30,switch,incongruant,dashed,triangle,yellow,timeout,left,no,,2021-11-10 10:22:00,1636561980.8020878,2.014322081369153,1.8636760793914948
1,1,1,experiment,standing,2,31,switch,incongruant,solid,triangle,yellow,left,right,no,1.2601220607757568,2021-11-10 10:22:00,1636561988.3914783,2.254935267162779,1.7612762182631907
1,1,1,experiment,standing,2,32,switch,incongruant,dashed,triangle,blue,left,left,yes,0.4484729766845703,2021-11-10 10:22:00,1636561995.160348,2.1309377349777554,1.8176609955561653
1,1,1,experiment,standing,2,33,switch,incongruant,solid,triangle,yellow,right,right,yes,0.3713550567626953,2021-11-10 10:22:00,1636561996.8760505,2.3718789443640915,1.7378431814428772
1,1,1,experiment,standing,2,34,switch,incongruant,dashed,triangle,yellow,left,left,yes,1.1588609218597412,2021-11-10 10:22:00,1636561999.355682,2.1818626362988294,1.983841112102569
1,1,1,experiment,standing,2,35,noswitch,congruant,dashed,triangle,blue,left,left,yes,0.3445520401000976,2021-11-10 10:22:00,1636562001.0077407,1.7895767523736152,1.7893281830727694
1,1,1,experiment,standing,2,36,noswitch,congruant,dashed,triangle,yellow,left,left,yes,0.4608440399169922,2021-11-10 10:22:00,1636562002.778641,2.224928463390991,1.6889970837235289
1,1,1,experiment,standing,2,37,noswitch,congruant,dashed,triangle,blue,left,left,yes,1.2264399528503418,2021-11-10 10:22:00,1636562005.3211715,2.0967634093038137,2.045569467517496
1,1,1,experiment,standing,2,38,switch,congruant,solid,square,blue,left,left,yes,1.0193579196929932,2021-11-10 10:22:00,1636562007.6848824,2.0941466326627385,1.8016940211338761
1,1,1,experiment,standing,2,39,noswitch,congruant,solid,triangle,blue,left,left,yes,0.6556780338287354,2021-11-10 10:22:00,1636562009.693494,2.4333412145528004,2.4555191000023893
1,1,1,experiment,standing,2,40,switch,congruant,dashed,triangle,yellow,left,left,yes,0.4063389301300049,2021-11-10 10:22:00,1636562011.4637306,1.8429063863640647,1.9255151537351411
1,1,1,experiment,standing,2,41,switch,congruant,solid,triangle,blue,timeout,left,no,,2021-11-10 10:22:00,1636562014.1827233,1.7726152238777206,1.7097988184489203
1,1,1,experiment,standing,2,42,noswitch,congruant,solid,square,blue,left,left,yes,1.08610200881958,2021-11-10 10:22:00,1636562021.5967646,1.9293005894421849,1.7117819297107222
1,1,1,experiment,standing,2,43,noswitch,congruant,solid,square,blue,left,left,yes,0.3733980655670166,2021-11-10 10:22:00,1636562023.3091526,1.9539929561033529,1.7074789538235067
1,1,1,experiment,standing,2,44,noswitch,incongruant,solid,square,yellow,right,right,yes,0.3863389492034912,2021-11-10 10:22:00,1636562025.0837388,2.6910979655666454,2.479461667631668
1,1,1,experiment,standing,2,45,switch,incongruant,dashed,triangle,blue,left,left,yes,0.5131449699401855,2021-11-10 10:22:00,1636562026.9136958,2.223861472377558,1.8696728687932158
1,1,1,experiment,standing,2,46,switch,incongruant,solid,triangle,yellow,right,right,yes,0.4326000213623047,2021-11-10 10:22:00,1636562028.6893609,2.5022758445371602,1.9960737898415026
1,1,1,experiment,standing,2,47,noswitch,incongruant,solid,triangle,blue,left,left,yes,0.5467028617858887,2021-11-10 10:22:00,1636562030.5799634,1.864502406327395,1.658542396861158
1,1,1,experiment,standing,2,48,switch,incongruant,dashed,square,blue,right,right,yes,1.0822269916534424,2021-11-10 10:22:00,1636562033.0047655,2.2103342180565586,1.897351519697926
1,1,1,experiment,standing,2,49,noswitch,congruant,dashed,square,yellow,right,right,yes,0.3075950145721435,2021-11-10 10:22:00,1636562034.6560717,2.318872010035279,2.0900970387407427
1,1,1,experiment,standing,3,1,buffer,buffer,solid,square,blue,left,left,yes,1.3210210800170898,2021-11-10 10:22:00,1636562052.8370397,2.1092602716085764,2.054636527972578
1,1,1,experiment,standing,3,2,noswitch,incongruant,solid,square,yellow,right,right,yes,0.510826826095581,2021-11-10 10:22:00,1636562054.7317417,2.0957460945897517,2.300168303206085
1,1,1,experiment,standing,3,3,switch,congruant,dashed,square,blue,right,right,yes,0.721444845199585,2021-11-10 10:22:00,1636562056.79975,2.4790894053335064,2.7485750964307236
1,1,1,experiment,standing,3,4,switch,incongruant,solid,square,blue,left,left,yes,0.821382999420166,2021-11-10 10:22:00,1636562058.9886117,2.169081434912301,2.504294969840382
1,1,1,experiment,standing,3,5,noswitch,congruant,solid,square,blue,left,left,yes,0.5244960784912109,2021-11-10 10:22:00,1636562060.8778152,2.243330657307827,2.4300305226593304
1,1,1,experiment,standing,3,6,switch,congruant,dashed,triangle,yellow,left,left,yes,0.7319519519805908,2021-11-10 10:22:00,1636562062.9452574,2.161673235261879,2.4336946398932127
1,1,1,experiment,standing,3,7,noswitch,congruant,dashed,triangle,blue,left,left,yes,0.5713138580322266,2021-11-10 10:22:00,1636562064.8365514,2.1891170895943786,2.5280167427794207
1,1,1,experiment,standing,3,8,switch,incongruant,solid,triangle,yellow,right,right,yes,0.3912420272827148,2021-11-10 10:22:00,1636562066.610996,2.565709038847216,2.5369866609283265
1,1,1,experiment,standing,3,9,noswitch,incongruant,solid,triangle,blue,left,left,yes,1.1526780128479004,2021-11-10 10:22:00,1636562069.0923903,2.237728273963552,2.4413408048713503
1,1,1,experiment,standing,3,10,switch,incongruant,dashed,square,yellow,right,right,yes,0.6558749675750732,2021-11-10 10:22:00,1636562071.1022234,2.1147019738455533,2.68474552430981
1,1,1,experiment,standing,3,11,noswitch,incongruant,dashed,triangle,blue,left,left,yes,0.8455450534820557,2021-11-10 10:22:00,1636562073.292292,2.29700521923851,2.283964283207465
1,1,1,experiment,standing,3,12,noswitch,congruant,dashed,triangle,yellow,left,left,yes,0.6064150333404541,2021-11-10 10:22:00,1636562075.2405844,1.9972212678387236,2.1983947097256764
1,1,1,experiment,standing,3,13,switch,incongruant,solid,square,yellow,right,right,yes,0.6402299404144287,2021-11-10 10:22:00,1636562077.249845,2.387930499290054,2.627870375064048
1,1,1,experiment,standing,3,14,noswitch,congruant,solid,square,yellow,right,right,yes,0.8772380352020264,2021-11-10 10:22:00,1636562079.4954307,2.403385638732108,2.5481891355058215
1,1,1,experiment,standing,3,15,noswitch,incongruant,solid,square,blue,left,left,yes,0.4390730857849121,2021-11-10 10:22:00,1636562081.267702,2.2329785275595264,2.4682258987881394
1,1,1,experiment,standing,3,16,switch,incongruant,dashed,square,yellow,right,right,yes,0.6210019588470459,2021-11-10 10:22:00,1636562083.276717,2.448214447204755,2.5258429519752315
1,1,1,experiment,standing,3,17,noswitch,congruant,dashed,square,blue,right,right,yes,0.7652430534362793,2021-11-10 10:22:00,1636562085.373471,2.2433460590041543,2.57047409220618
1,1,1,experiment,standing,3,18,noswitch,congruant,dashed,square,yellow,right,right,yes,0.3679060935974121,2021-11-10 10:22:00,1636562087.0864742,2.034304887645192,2.397069907310635
1,1,1,experiment,standing,3,19,noswitch,congruant,dashed,square,blue,right,right,yes,0.4186761379241943,2021-11-10 10:22:00,1636562088.8580832,2.457481978007761,2.8405286572922432
1,1,1,experiment,standing,3,20,switch,congruant,solid,triangle,yellow,right,right,yes,0.7985060214996338,2021-11-10 10:22:00,1636562090.9859016,2.3621729273713905,2.550115820816798
1,1,1,experiment,standing,3,21,switch,congruant,dashed,square,blue,right,right,yes,0.7883701324462891,2021-11-10 10:22:00,1636562093.1133597,2.08886624157547,2.7149542352999103
1,1,1,experiment,standing,3,22,noswitch,congruant,dashed,square,yellow,right,right,yes,1.1396028995513916,2021-11-10 10:22:00,1636562095.5965917,2.2132750944004655,2.5718624266557395
1,1,1,experiment,standing,3,23,noswitch,incongruant,dashed,triangle,blue,left,left,yes,0.5510399341583252,2021-11-10 10:22:00,1636562097.4927557,2.1634905449321926,2.9781404746672977
1,1,1,experiment,standing,3,24,noswitch,congruant,dashed,triangle,yellow,left,left,yes,0.3548829555511474,2021-11-10 10:22:00,1636562099.2034502,2.31918190926923,2.434113195156059
1,1,1,experiment,standing,3,25,noswitch,congruant,dashed,triangle,yellow,left,left,yes,0.2764818668365478,2021-11-10 10:22:00,1636562100.7973154,1.951828708189838,2.436247169831906
1,1,1,experiment,standing,3,26,switch,incongruant,solid,triangle,yellow,right,right,yes,0.9499959945678712,2021-11-10 10:22:00,1636562103.108951,1.8988257240413098,2.154197254548561
1,1,1,experiment,standing,3,27,switch,incongruant,dashed,triangle,blue,left,left,yes,0.6658999919891357,2021-11-10 10:22:00,1636562105.1187782,1.9917336186965264,2.1881661998680713
1,1,1,experiment,standing,3,28,switch,incongruant,solid,square,yellow,timeout,right,no,,2021-11-10 10:22:00,1636562107.8948822,1.9827471753758952,2.4374568697287473
1,1,1,experiment,standing,3,29,switch,congruant,dashed,square,blue,right,right,yes,1.253486156463623,2021-11-10 10:22:00,1636562115.4903529,2.2125917296628907,2.4319948987132674
1,1,1,experiment,standing,3,30,switch,incongruant,solid,triangle,blue,left,left,yes,0.4964220523834228,2021-11-10 10:22:00,1636562117.3196738,2.228321795949439,2.640837099774857
1,1,1,experiment,standing,3,31,switch,incongruant,dashed,square,blue,right,right,yes,0.3256649971008301,2021-11-10 10:22:00,1636562119.0342162,2.169737136520397,2.1299347789736345
1,1,1,experiment,standing,3,32,switch,congruant,solid,triangle,yellow,right,right,yes,1.2140119075775146,2021-11-10 10:22:00,1636562121.5744765,2.187816854637712,2.4076754394281057
1,1,1,experiment,standing,3,33,noswitch,incongruant,solid,triangle,blue,left,left,yes,0.3538260459899902,2021-11-10 10:22:00,1636562123.2871644,2.0933818405449185,2.252789173281088
1,1,1,experiment,standing,3,34,switch,congruant,dashed,triangle,yellow,left,left,yes,1.0622520446777344,2021-11-10 10:22:00,1636562125.7096434,2.1780402004469224,2.3997831460011243
1,1,1,experiment,standing,3,35,switch,congruant,solid,triangle,blue,left,left,yes,0.3444831371307373,2021-11-10 10:22:00,1636562127.3620436,2.2277014698616133,2.9275165459300925
1,1,1,experiment,standing,3,36,noswitch,congruant,solid,triangle,blue,left,left,yes,0.3120069503784179,2021-11-10 10:22:00,1636562129.0146997,2.1566764888245413,2.752805523116783
1,1,1,experiment,standing,3,37,switch,congruant,dashed,triangle,blue,right,left,no,0.8972690105438232,2021-11-10 10:22:00,1636562131.2615397,2.049491920110607,2.1967384853190888
1,1,1,experiment,standing,3,38,noswitch,incongruant,dashed,square,yellow,timeout,right,no,,2021-11-10 10:22:00,1636562139.033104,2.1217728056290226,2.1709677251844184
1,1,1,experiment,standing,3,39,noswitch,incongruant,dashed,triangle,yellow,left,left,yes,0.5199081897735596,2021-11-10 10:22:00,1636562145.9173913,2.0175700463597863,2.7449928170024944
1,1,1,experiment,standing,3,40,switch,congruant,solid,square,blue,left,left,yes,0.6011888980865479,2021-11-10 10:22:00,1636562147.8667068,2.125799403427035,2.228656033302872
1,1,1,experiment,standing,3,41,noswitch,incongruant,solid,square,yellow,right,right,yes,0.5425357818603516,2021-11-10 10:22:00,1636562149.7591934,1.9404526809862723,2.1035248408525264
1,1,1,experiment,standing,3,42,noswitch,congruant,solid,square,yellow,right,right,yes,0.519273042678833,2021-11-10 10:22:00,1636562151.6491313,1.9709285086477486,1.8077192662263228
1,1,1,experiment,standing,3,43,switch,incongruant,dashed,triangle,blue,left,left,yes,1.2758028507232666,2021-11-10 10:22:00,1636562154.2512815,2.106380330753121,2.2928012590897406
1,1,1,experiment,standing,3,44,switch,incongruant,solid,triangle,yellow,right,right,yes,0.9922139644622804,2021-11-10 10:22:00,1636562156.614395,2.220732381721069,2.491009266397658
1,1,1,experiment,standing,3,45,noswitch,incongruant,solid,triangle,blue,left,left,yes,0.4997141361236572,2021-11-10 10:22:00,1636562158.445202,2.3067385653929025,2.6806684601913022
1,1,1,experiment,standing,3,46,noswitch,incongruant,solid,triangle,yellow,right,right,yes,0.959315061569214,2021-11-10 10:22:00,1636562160.752209,2.10836506900204,2.7668132071268836
1,1,1,experiment,standing,3,47,switch,congruant,dashed,square,yellow,right,right,yes,0.4864580631256103,2021-11-10 10:22:00,1636562162.5826533,1.8798488582418502,2.486661004000731
1,1,1,experiment,standing,3,48,switch,incongruant,solid,square,blue,left,left,yes,0.4560830593109131,2021-11-10 10:22:00,1636562164.3542006,2.1535172902212305,2.326283998412998
1,1,1,experiment,standing,3,49,noswitch,congruant,solid,square,blue,left,left,yes,0.4163551330566406,2021-11-10 10:22:00,1636562166.1259763,2.5704679894977644,2.6763474664794518
1,1,1,experiment,standing,4,1,buffer,buffer,solid,triangle,blue,left,left,yes,0.760483980178833,2021-11-10 10:22:00,1636562177.1106036,2.1684609156011017,2.2993649024482106
1,1,1,experiment,standing,4,2,switch,congruant,dashed,triangle,yellow,left,left,yes,0.7487208843231201,2021-11-10 10:22:00,1636562179.1797056,2.1422583287624106,2.341222351119945
1,1,1,experiment,standing,4,3,switch,incongruant,solid,triangle,yellow,right,right,yes,0.4733369350433349,2021-11-10 10:22:00,1636562181.0130415,2.154677699997633,2.0149666190505084
1,1,1,experiment,standing,4,4,noswitch,congruant,solid,square,yellow,right,right,yes,0.4130301475524902,2021-11-10 10:22:00,1636562182.7850692,2.1387274696465557,2.1067252657799056
1,1,1,experiment,standing,4,5,noswitch,incongruant,solid,triangle,blue,left,left,yes,0.4627218246459961,2021-11-10 10:22:00,1636562184.5557697,2.059240612923479,2.0763959613164085
1,1,1,experiment,standing,4,6,noswitch,congruant,solid,square,blue,left,left,yes,0.4468801021575928,2021-11-10 10:22:00,1636562186.3266006,2.1343215584199577,1.997498557793604
1,1,1,experiment,standing,4,7,noswitch,incongruant,solid,square,yellow,right,right,yes,0.4121439456939697,2021-11-10 10:22:00,1636562188.1026397,2.0117594640730827,2.424197732200445
1,1,1,experiment,standing,4,8,switch,incongruant,dashed,triangle,blue,left,left,yes,0.5793819427490234,2021-11-10 10:22:00,1636562190.055045,1.926433461079536,2.5257094808017007
1,1,1,experiment,standing,4,9,noswitch,incongruant,dashed,square,yellow,right,right,yes,0.7847411632537842,2021-11-10 10:22:00,1636562192.183967,2.0461872423414196,2.4954775373829685
1,1,1,experiment,standing,4,10,switch,congruant,solid,triangle,yellow,right,right,yes,0.5697770118713379,2021-11-10 10:22:00,1636562194.1313982,2.1105430827054645,2.1988609731319717
1,1,1,experiment,standing,4,11,switch,incongruant,dashed,triangle,yellow,right,left,no,0.5626299381256104,2021-11-10 10:22:00,1636562196.0217223,1.9365951910686254,2.5011010266448515
1,1,1,experiment,standing,4,12,switch,incongruant,solid,square,yellow,right,right,yes,0.7503681182861328,2021-11-10 10:22:00,1636562203.145628,2.055990225612096,2.4833697081714448
1,1,1,experiment,standing,4,13,noswitch,incongruant,solid,square,blue,left,left,yes,0.5196840763092041,2021-11-10 10:22:00,1636562205.038736,2.0739340738263863,1.99557002182331
1,1,1,experiment,standing,4,14,noswitch,congruant,solid,square,blue,left,left,yes,0.8997061252593994,2021-11-10 10:22:00,1636562207.284232,2.425251975659145,2.440336448215669
1,1,1,experiment,standing,4,15,noswitch,congruant,solid,triangle,blue,left,left,yes,0.6859090328216553,2021-11-10 10:22:00,1636562209.2928066,1.9423039367596837,2.1353738575212953
1,1,1,experiment,standing,4,16,switch,incongruant,dashed,square,blue,right,right,yes,0.6733758449554443,2021-11-10 10:22:00,1636562211.3014176,2.0537510666320675,2.4918827521467
1,1,1,experiment,standing,4,17,noswitch,incongruant,dashed,triangle,yellow,left,left,yes,1.1151940822601318,2021-11-10 10:22:00,1636562213.7858896,2.11685440446214,2.3280921178505536
1,1,1,experiment,standing,4,18,noswitch,incongruant,dashed,square,yellow,right,right,yes,0.4651010036468506,2021-11-10 10:22:00,1636562215.6189227,2.218578792808125,2.5707869872282747
1,1,1,experiment,standing,4,19,switch,congruant,solid,square,yellow,timeout,right,no,,2021-11-10 10:22:00,1636562218.3954563,2.1475206608739645,2.254887395475191
1,1,1,experiment,standing,4,20,switch,congruant,dashed,square,blue,right,right,yes,0.6586229801177979,2021-11-10 10:22:00,1636562225.391435,2.149208659175395,2.313159226049944
1,1,1,experiment,standing,4,21,switch,congruant,solid,triangle,yellow,right,right,yes,0.3466250896453857,2021-11-10 10:22:00,1636562227.1049552,1.9330963196155966,2.609249958210336
1,1,1,experiment,standing,4,22,switch,incongruant,dashed,triangle,yellow,left,left,yes,1.155891180038452,2021-11-10 10:22:00,1636562229.587278,2.3723593961275538,2.708242317457667
1,1,1,experiment,standing,4,23,noswitch,congruant,dashed,triangle,blue,left,left,yes,0.3907070159912109,2021-11-10 10:22:00,1636562231.2977476,1.9992169722010522,2.5285433377642095
1,1,1,experiment,standing,4,24,switch,incongruant,solid,triangle,yellow,right,right,yes,0.5710790157318115,2021-11-10 10:22:00,1636562233.249009,2.0993321153266935,2.8517398671133996
1,1,1,experiment,standing,4,25,noswitch,incongruant,solid,square,blue,left,left,yes,0.4306440353393554,2021-11-10 10:22:00,1636562235.022611,2.1580959898263252,2.068571592828104
1,1,1,experiment,standing,4,26,switch,congruant,dashed,triangle,yellow,left,left,yes,0.342303991317749,2021-11-10 10:22:00,1636562236.6752405,2.1334703194691276,2.1157280769278297
1,1,1,experiment,standing,4,27,noswitch,congruant,dashed,triangle,blue,left,left,yes,0.6222021579742432,2021-11-10 10:22:00,1636562238.6245732,2.1001199952840013,2.6031290128793594
1,1,1,experiment,standing,4,28,switch,congruant,solid,square,blue,left,left,yes,1.0915520191192627,2021-11-10 10:22:00,1636562241.0455258,2.076861143147429,2.2076977908222686
1,1,1,experiment,standing,4,29,noswitch,incongruant,solid,square,yellow,right,right,yes,0.5613059997558594,2021-11-10 10:22:00,1636562242.9959135,2.2997022870696155,2.3588999840145903
1,1,1,experiment,standing,4,30,switch,congruant,dashed,square,blue,right,right,yes,0.6083250045776367,2021-11-10 10:22:00,1636562244.9463334,2.2686345817043074,2.524432955746761
1,1,1,experiment,standing,4,31,noswitch,incongruant,dashed,triangle,yellow,left,left,yes,0.4967429637908935,2021-11-10 10:22:00,1636562246.7770543,2.2130239643819793,2.612506577405766
1,1,1,experiment,standing,4,32,switch,congruant,solid,triangle,blue,left,left,yes,0.3073711395263672,2021-11-10 10:22:00,1636562248.429686,2.160019805569751,2.3458924569123702
1,1,1,experiment,standing,4,33,noswitch,congruant,solid,triangle,blue,left,left,yes,0.8317468166351318,2021-11-10 10:22:00,1636562250.6171625,2.1105941718591246,2.357767147374873
1,1,1,experiment,standing,4,34,switch,congruant,dashed,triangle,blue,left,left,yes,0.6727440357208252,2021-11-10 10:22:00,1636562252.6272607,2.037412531265192,2.3396899439691894
1,1,1,experiment,standing,4,35,noswitch,incongruant,dashed,square,blue,right,right,yes,0.6462948322296143,2021-11-10 10:22:00,1636562254.6362002,2.3216997782453253,2.1821946491650865
1,1,1,experiment,standing,4,36,noswitch,incongruant,dashed,triangle,blue,left,left,yes,0.39556884765625,2021-11-10 10:22:00,1636562256.3473296,2.3811667028596317,2.521856392143957
1,1,1,experiment,standing,4,37,switch,incongruant,solid,square,yellow,right,right,yes,0.4961562156677246,2021-11-10 10:22:00,1636562258.178214,2.0025798918440794,1.8780089613067326
1,1,1,experiment,standing,4,38,noswitch,congruant,solid,triangle,yellow,right,right,yes,0.3405230045318603,2021-11-10 10:22:00,1636562259.8899274,2.501456425809176,2.3865935739726107
1,1,1,experiment,standing,4,39,switch,congruant,dashed,square,yellow,right,right,yes,0.5128011703491211,2021-11-10 10:22:00,1636562261.781496,1.9821962889730338,2.5391139117405657
1,1,1,experiment,standing,4,40,switch,congruant,solid,triangle,yellow,right,right,yes,1.2944130897521973,2021-11-10 10:22:00,1636562264.4426434,2.108768633853364,2.4688441279796933
1,1,1,experiment,standing,4,41,switch,incongruant,dashed,triangle,blue,left,left,yes,0.4701390266418457,2021-11-10 10:22:00,1636562266.275506,2.0170458849258357,2.1306343572805297
1,1,1,experiment,standing,4,42,noswitch,incongruant,dashed,square,blue,right,right,yes,0.4466509819030761,2021-11-10 10:22:00,1636562268.109516,2.1459177161268013,2.4465020043889245
1,1,1,experiment,standing,4,43,noswitch,congruant,dashed,square,blue,right,right,yes,0.5366408824920654,2021-11-10 10:22:00,1636562269.9994085,2.107160250519788,2.314085663765803
1,1,1,experiment,standing,4,44,noswitch,congruant,dashed,square,yellow,right,right,yes,0.5369448661804199,2021-11-10 10:22:00,1636562271.8891952,2.2718205863752114,2.575670822171569
1,1,1,experiment,standing,4,45,noswitch,congruant,dashed,square,yellow,right,right,yes,0.4251079559326172,2021-11-10 10:22:00,1636562273.6607912,2.0558221566574475,2.3297455525762363
1,1,1,experiment,standing,4,46,switch,incongruant,solid,triangle,blue,left,left,yes,0.3538379669189453,2021-11-10 10:22:00,1636562275.3725832,2.173871363055447,2.449658041187939
1,1,1,experiment,standing,4,47,noswitch,congruant,solid,square,blue,left,left,yes,0.2982170581817627,2021-11-10 10:22:00,1636562277.024856,2.397704113393421,2.3253089508186746
1,1,1,experiment,standing,4,48,switch,incongruant,dashed,square,yellow,right,right,yes,0.588533878326416,2021-11-10 10:22:00,1636562278.9777334,2.240244401284474,2.341175777602968
1,1,1,experiment,standing,4,49,switch,incongruant,solid,triangle,blue,left,left,yes,0.3548049926757812,2021-11-10 10:22:00,1636562280.68918,2.001201959652465,2.2333602486997397
1,1,1,experiment,sitting,1,1,buffer,buffer,dashed,triangle,blue,left,left,yes,0.6455478668212891,2021-11-10 10:22:00,1636562382.3312926,2.0468120999056403,4.32918240288179
1,1,1,experiment,sitting,1,2,switch,congruant,solid,square,blue,left,left,yes,0.4528708457946777,2021-11-10 10:22:00,1636562384.104887,2.296265417021921,5.0372835536784395
1,1,1,experiment,sitting,1,3,switch,congruant,dashed,triangle,blue,left,left,yes,0.6916670799255371,2021-11-10 10:22:00,1636562386.1135626,2.022335655353938,6.446830160104252
1,1,1,experiment,sitting,1,4,switch,congruant,solid,triangle,blue,left,left,yes,0.4525771141052246,2021-11-10 10:22:00,1636562387.8849208,2.524342870502376,5.169876492970173
1,1,1,experiment,sitting,1,5,switch,incongruant,dashed,square,yellow,right,right,yes,0.5837020874023438,2021-11-10 10:22:00,1636562389.8369884,2.005771790448617,4.708082611089752
1,1,1,experiment,sitting,1,6,noswitch,incongruant,dashed,triangle,blue,left,left,yes,0.7153291702270508,2021-11-10 10:22:00,1636562391.906811,2.180381866948861,4.900654828896566
1,1,1,experiment,sitting,1,7,noswitch,incongruant,dashed,square,blue,right,right,yes,0.4954421520233154,2021-11-10 10:22:00,1636562393.7375286,2.8519620777674275,7.0267510330098215
1,1,1,experiment,sitting,1,8,noswitch,incongruant,dashed,triangle,yellow,left,left,yes,1.2872560024261477,2021-11-10 10:22:00,1636562396.33854,2.333969831628412,6.122903388274457
1,1,1,experiment,sitting,1,9,switch,congruant,solid,triangle,blue,left,left,yes,0.4765679836273193,2021-11-10 10:22:00,1636562398.1695766,2.334401488804046,5.33180092521666
1,1,1,experiment,sitting,1,10,noswitch,congruant,solid,square,blue,left,left,yes,0.3181240558624267,2021-11-10 10:22:00,1636562399.8244371,2.5601440773635287,6.955616905644824
1,1,1,experiment,sitting,1,11,switch,incongruant,dashed,square,yellow,right,right,yes,0.4413268566131592,2021-11-10 10:22:00,1636562401.597172,2.421789174616438,5.162762293109905
1,1,1,experiment,sitting,1,12,noswitch,congruant,dashed,square,blue,right,right,yes,0.6804120540618896,2021-11-10 10:22:00,1636562403.6047013,2.058718182214479,6.496905381157966
1,1,1,experiment,sitting,1,13,noswitch,congruant,dashed,square,blue,right,right,yes,0.3837330341339111,2021-11-10 10:22:00,1636562405.317378,2.466800279634247,6.383919317144642
1,1,1,experiment,sitting,1,14,switch,incongruant,solid,square,blue,timeout,left,no,,2021-11-10 10:22:00,1636562408.094576,2.4472026520675443,6.13136524496764
1,1,1,experiment,sitting,1,15,switch,incongruant,dashed,square,yellow,right,right,yes,0.7357192039489746,2021-11-10 10:22:00,1636562415.1587815,2.4509542088612637,5.594101633248168
1,1,1,experiment,sitting,1,16,switch,congruant,solid,triangle,yellow,right,right,yes,0.4057729244232178,2021-11-10 10:22:00,1636562416.928748,2.3229267568998253,5.114129219370074
1,1,1,experiment,sitting,1,17,switch,congruant,dashed,square,blue,left,right,no,1.047456979751587,2021-11-10 10:22:00,1636562419.2926629,2.5055593276518535,6.163882649565866
1,1,1,experiment,sitting,1,18,noswitch,incongruant,dashed,triangle,blue,left,left,yes,0.9508271217346193,2021-11-10 10:22:00,1636562426.597196,2.0746965284503545,4.742486036961955
1,1,1,experiment,sitting,1,19,noswitch,congruant,dashed,triangle,yellow,left,left,yes,0.3382802009582519,2021-11-10 10:22:00,1636562428.2505612,2.631589252590072,5.363322682763077
1,1,1,experiment,sitting,1,20,noswitch,congruant,dashed,triangle,blue,left,left,yes,0.3265531063079834,2021-11-10 10:22:00,1636562429.9032507,2.042185937328763,5.8210428765727045
1,1,1,experiment,sitting,1,21,switch,incongruant,solid,triangle,yellow,right,right,yes,0.4816150665283203,2021-11-10 10:22:00,1636562431.739771,2.470989338261221,6.313910021418166
1,1,1,experiment,sitting,1,22,switch,incongruant,dashed,triangle,blue,left,left,yes,0.7475030422210693,2021-11-10 10:22:00,1636562433.8071356,2.43662102879362,4.949621410309555
1,1,1,experiment,sitting,1,23,switch,incongruant,solid,square,yellow,right,right,yes,0.4951508045196533,2021-11-10 10:22:00,1636562435.636318,2.134699874516849,4.404038843180923
1,1,1,experiment,sitting,1,24,noswitch,congruant,solid,square,yellow,right,right,yes,0.3340401649475097,2021-11-10 10:22:00,1636562437.3483684,2.406934456194043,4.662610284984596
1,1,1,experiment,sitting,1,25,switch,congruant,dashed,square,yellow,right,right,yes,0.4910979270935058,2021-11-10 10:22:00,1636562439.1793969,2.5869977216469575,4.00340237429964
1,1,1,experiment,sitting,1,26,noswitch,congruant,dashed,square,blue,timeout,right,no,,2021-11-10 10:22:00,1636562441.899569,2.2267801527286792,4.739533007252991
1,1,1,experiment,sitting,1,27,switch,congruant,solid,triangle,yellow,right,right,yes,1.366569995880127,2021-11-10 10:22:00,1636562449.6089563,2.0085239586278187,4.878123309135829
1,1,1,experiment,sitting,1,28,noswitch,incongruant,solid,triangle,blue,left,left,yes,0.4171650409698486,2021-11-10 10:22:00,1636562451.3794503,1.7459804719899092,4.456302799303364
1,1,1,experiment,sitting,1,29,noswitch,incongruant,solid,triangle,yellow,right,right,yes,0.6964759826660156,2021-11-10 10:22:00,1636562453.448658,1.9193978948348382,3.303816521317097
1,1,1,experiment,sitting,1,30,noswitch,incongruant,solid,square,blue,left,left,yes,0.3965420722961426,2021-11-10 10:22:00,1636562455.1608202,2.0284748827551162,2.637088196487096
1,1,1,experiment,sitting,1,31,switch,congruant,dashed,triangle,yellow,left,left,yes,0.736799955368042,2021-11-10 10:22:00,1636562457.227805,1.910794920252218,2.7348028286970076
1,1,1,experiment,sitting,1,32,switch,incongruant,solid,square,yellow,right,right,yes,0.9049689769744872,2021-11-10 10:22:00,1636562459.4771397,1.9458062655398052,2.8926526416440668
1,1,1,experiment,sitting,1,33,noswitch,congruant,solid,square,yellow,right,right,yes,0.3398451805114746,2021-11-10 10:22:00,1636562461.188481,2.0918527642862963,4.825094508612594
1,1,1,experiment,sitting,1,34,noswitch,congruant,solid,square,yellow,right,right,yes,0.3907358646392822,2021-11-10 10:22:00,1636562462.9608526,2.1429286777549756,5.594736885762401
1,1,1,experiment,sitting,1,35,switch,incongruant,dashed,triangle,yellow,left,left,yes,0.7683560848236084,2021-11-10 10:22:00,1636562465.091518,1.779442810172359,5.218853753447677
1,1,1,experiment,sitting,1,36,noswitch,incongruant,dashed,square,yellow,right,right,yes,0.5915260314941406,2021-11-10 10:22:00,1636562467.04078,2.184194549525076,4.636432714662904
1,1,1,experiment,sitting,1,37,noswitch,incongruant,dashed,triangle,yellow,left,left,yes,0.5259110927581787,2021-11-10 10:22:00,1636562468.9355354,2.115160218259558,3.1236159140163893
1,1,1,experiment,sitting,1,38,noswitch,congruant,dashed,triangle,blue,left,left,yes,0.5675339698791504,2021-11-10 10:22:00,1636562470.8237872,2.0104653182149215,5.217319377049001
1,1,1,experiment,sitting,1,39,switch,congruant,solid,triangle,blue,left,left,yes,0.4191479682922363,2021-11-10 10:22:00,1636562472.5938735,2.1301487387418483,6.269508416041977
1,1,1,experiment,sitting,1,40,noswitch,congruant,solid,square,blue,left,left,yes,0.4756159782409668,2021-11-10 10:22:00,1636562474.424728,1.9110101569494191,5.501544554916298
1,1,1,experiment,sitting,1,41,switch,incongruant,dashed,square,blue,timeout,right,no,,2021-11-10 10:22:00,1636562477.201793,2.055668071548354,5.670318163719546
1,1,1,experiment,sitting,1,42,switch,incongruant,solid,triangle,blue,left,left,yes,0.679908037185669,2021-11-10 10:22:00,1636562484.2011657,2.011420125093141,3.0238237236961463
1,1,1,experiment,sitting,1,43,noswitch,congruant,solid,square,blue,left,left,yes,0.4457240104675293,2021-11-10 10:22:00,1636562485.9726863,2.1813200566864017,3.322284932533902
1,1,1,experiment,sitting,1,44,switch,incongruant,dashed,square,yellow,right,right,yes,0.5324249267578125,2021-11-10 10:22:00,1636562487.8645887,1.8597410801621967,4.007126050628864
1,1,1,experiment,sitting,1,45,switch,incongruant,solid,triangle,blue,left,left,yes,0.3943018913269043,2021-11-10 10:22:00,1636562489.5759263,2.076212189602993,4.475212324713961
1,1,1,experiment,sitting,1,46,noswitch,incongruant,solid,triangle,yellow,right,right,yes,0.4034781455993652,2021-11-10 10:22:00,1636562491.3464825,2.0723165329206337,4.3409224267132585
1,1,1,experiment,sitting,1,47,noswitch,congruant,solid,square,yellow,right,right,yes,0.5532739162445068,2021-11-10 10:22:00,1636562493.2362237,2.0328103917109512,5.369685289414725
1,1,1,experiment,sitting,1,48,noswitch,congruant,solid,triangle,yellow,right,right,yes,0.46828293800354,2021-11-10 10:22:00,1636562495.0675476,2.2369218989982773,3.3857936968796905
1,1,1,experiment,sitting,1,49,switch,incongruant,dashed,triangle,yellow,left,left,yes,0.9294719696044922,2021-11-10 10:22:00,1636562497.3139338,2.012142573108172,4.032163419789532
1,1,1,experiment,sitting,2,1,buffer,buffer,dashed,triangle,yellow,left,left,yes,0.5107388496398926,2021-11-10 10:22:00,1636562507.7318103,2.3095178953117252,3.4878557510245187
1,1,1,experiment,sitting,2,2,switch,incongruant,solid,triangle,yellow,right,right,yes,0.7199690341949463,2021-11-10 10:22:00,1636562509.7998104,2.0312378427238995,4.513331578829804
1,1,1,experiment,sitting,2,3,noswitch,incongruant,solid,triangle,blue,left,left,yes,0.5101029872894287,2021-11-10 10:22:00,1636562511.6298816,2.049433013608967,4.109827912961749
1,1,1,experiment,sitting,2,4,noswitch,congruant,solid,triangle,blue,left,left,yes,0.986886978149414,2021-11-10 10:22:00,1636562513.934241,2.5542955686421736,4.2085446867295735
1,1,1,experiment,sitting,2,5,noswitch,congruant,solid,square,blue,left,left,yes,0.4543771743774414,2021-11-10 10:22:00,1636562515.706432,1.8481641053500373,3.8001106336518884
1,1,1,experiment,sitting,2,6,noswitch,incongruant,solid,square,yellow,right,right,yes,1.0745439529418943,2021-11-10 10:22:00,1636562518.1284227,2.2511569541079908,5.31153339740846
1,1,1,experiment,sitting,2,7,switch,incongruant,dashed,triangle,blue,left,left,yes,0.4370319843292236,2021-11-10 10:22:00,1636562519.898373,1.737120385165153,3.5565097941047803
1,1,1,experiment,sitting,2,8,noswitch,incongruant,dashed,square,blue,right,right,yes,1.0590291023254397,2021-11-10 10:22:00,1636562522.326529,2.1717838733921226,4.892855788324064
1,1,1,experiment,sitting,2,9,noswitch,congruant,dashed,square,blue,right,right,yes,0.7252919673919678,2021-11-10 10:22:00,1636562524.3932788,1.6817256375238994,5.714166530448485
1,1,1,experiment,sitting,2,10,switch,congruant,solid,triangle,yellow,right,right,yes,0.9675211906433104,2021-11-10 10:22:00,1636562526.701161,2.1268945595822855,5.659678706468353
1,1,1,experiment,sitting,2,11,noswitch,incongruant,solid,triangle,blue,left,left,yes,0.7032558917999268,2021-11-10 10:22:00,1636562528.7732637,2.249378382250256,4.491278887376793
1,1,1,experiment,sitting,2,12,switch,incongruant,dashed,square,yellow,timeout,right,no,,2021-11-10 10:22:00,1636562531.5507083,2.3020854416208905,5.8690526385755515
1,1,1,experiment,sitting,2,13,switch,congruant,solid,square,yellow,right,right,yes,0.6353421211242676,2021-11-10 10:22:00,1636562538.5527534,2.272455422894187,4.860850380606845
1,1,1,experiment,sitting,2,14,switch,incongruant,dashed,triangle,blue,left,left,yes,0.882904052734375,2021-11-10 10:22:00,1636562540.8005323,2.633992114020664,4.837777943337935
1,1,1,experiment,sitting,2,15,switch,congruant,solid,square,blue,left,left,yes,0.6520709991455078,2021-11-10 10:22:00,1636562542.808888,2.059685362412216,3.9648053988661123
1,1,1,experiment,sitting,2,16,switch,incongruant,dashed,square,yellow,right,right,yes,0.4930381774902344,2021-11-10 10:22:00,1636562544.6402445,2.584592115256884,3.246135046344082
1,1,1,experiment,sitting,2,17,noswitch,incongruant,dashed,triangle,yellow,left,left,yes,0.46337890625,2021-11-10 10:22:00,1636562546.4719577,2.397442536335564,4.0812744763851985
1,1,1,experiment,sitting,2,18,noswitch,incongruant,dashed,square,blue,right,right,yes,0.5279860496520996,2021-11-10 10:22:00,1636562548.36355,2.2951104968033396,3.82723179759176
1,1,1,experiment,sitting,2,19,noswitch,congruant,dashed,square,yellow,right,right,yes,0.5338859558105469,2021-11-10 10:22:00,1636562550.2514849,2.0296147602021826,3.3392315544464526
1,1,1,experiment,sitting,2,20,switch,congruant,solid,square,yellow,right,right,yes,0.5071430206298828,2021-11-10 10:22:00,1636562552.1414356,2.326682763502536,3.0775957572840924
1,1,1,experiment,sitting,2,21,switch,incongruant,dashed,triangle,yellow,right,left,no,1.136530876159668,2021-11-10 10:22:00,1636562554.625014,2.290090987827194,3.8070733238341954
1,1,1,experiment,sitting,2,22,noswitch,congruant,dashed,triangle,blue,left,left,yes,0.6257879734039307,2021-11-10 10:22:00,1636562561.5743694,2.350248999246217,3.021239573736589
1,1,1,experiment,sitting,2,23,noswitch,congruant,dashed,triangle,blue,left,left,yes,0.4298510551452636,2021-11-10 10:22:00,1636562563.3458574,2.556960283351225,4.19963378965371
1,1,1,experiment,sitting,2,24,switch,congruant,solid,square,blue,left,left,yes,0.4210400581359863,2021-11-10 10:22:00,1636562565.1187708,2.653652622820156,3.5736772383239077
1,1,1,experiment,sitting,2,25,switch,congruant,dashed,triangle,blue,left,left,yes,0.419490098953247,2021-11-10 10:22:00,1636562566.8889682,2.269171053962522,4.711808762389941
1,1,1,experiment,sitting,2,26,switch,congruant,solid,triangle,blue,left,left,yes,0.912585973739624,2021-11-10 10:22:00,1636562569.1353862,2.357172141800135,3.290786095556774
1,1,1,experiment,sitting,2,27,noswitch,congruant,solid,triangle,blue,left,left,yes,0.7695920467376709,2021-11-10 10:22:00,1636562571.261257,2.492548693950936,3.23139391575468
1,1,1,experiment,sitting,2,28,switch,incongruant,dashed,square,yellow,right,right,yes,0.5589702129364014,2021-11-10 10:22:00,1636562573.1510627,2.5210410842256374,5.1707995513913945
1,1,1,experiment,sitting,2,29,switch,congruant,solid,triangle,yellow,right,right,yes,0.3068082332611084,2021-11-10 10:22:00,1636562574.8041234,2.5916672122825974,4.51182626442127
1,1,1,experiment,sitting,2,30,switch,incongruant,dashed,triangle,yellow,left,left,yes,1.14025616645813,2021-11-10 10:22:00,1636562577.2887104,2.363144852611315,4.399098284308356
1,1,1,experiment,sitting,2,31,noswitch,congruant,dashed,triangle,yellow,left,left,yes,0.3592240810394287,2021-11-10 10:22:00,1636562578.9994695,2.261724979672055,4.627080128008009
1,1,1,experiment,sitting,2,32,switch,incongruant,solid,square,yellow,right,right,yes,0.3106608390808105,2021-11-10 10:22:00,1636562580.6542258,2.757881342772945,4.285946447806796
1,1,1,experiment,sitting,2,33,switch,congruant,dashed,square,yellow,right,right,yes,0.4890499114990234,2021-11-10 10:22:00,1636562582.4830337,2.654313588444356,4.589134241711798
1,1,1,experiment,sitting,2,34,noswitch,congruant,dashed,square,blue,timeout,right,no,,2021-11-10 10:22:00,1636562585.2035391,2.7002322325952397,4.1395628058104235
1,1,1,experiment,sitting,2,35,switch,incongruant,solid,square,blue,left,left,yes,1.2817790508270264,2021-11-10 10:22:00,1636562592.792602,2.436683726318888,3.8380183781262347
1,1,1,experiment,sitting,2,36,noswitch,congruant,solid,triangle,blue,left,left,yes,0.3832559585571289,2021-11-10 10:22:00,1636562594.5027244,2.0768762573690838,3.5199534353538646
1,1,1,experiment,sitting,2,37,noswitch,incongruant,solid,square,yellow,right,right,yes,0.3737821578979492,2021-11-10 10:22:00,1636562596.2203035,2.481326346496812,5.822290565692405
1,1,1,experiment,sitting,2,38,switch,incongruant,dashed,triangle,yellow,left,left,yes,0.5241580009460449,2021-11-10 10:22:00,1636562598.1108868,2.603094174525749,5.320436025980221
1,1,1,experiment,sitting,2,39,noswitch,incongruant,dashed,square,yellow,right,right,yes,0.412722110748291,2021-11-10 10:22:00,1636562599.8832097,2.6180656847657886,4.157949198700125
1,1,1,experiment,sitting,2,40,noswitch,congruant,dashed,square,blue,right,right,yes,0.6657559871673584,2021-11-10 10:22:00,1636562601.8914382,2.4756641801479358,4.004486277628134
1,1,1,experiment,sitting,2,41,switch,congruant,solid,triangle,yellow,right,right,yes,0.840205192565918,2021-11-10 10:22:00,1636562604.0800643,2.9163463092467166,3.37957329043059
1,1,1,experiment,sitting,2,42,noswitch,congruant,solid,square,yellow,right,right,yes,0.5224349498748779,2021-11-10 10:22:00,1636562605.9720829,2.4288819730933686,2.9042755377308915
1,1,1,experiment,sitting,2,43,noswitch,incongruant,solid,square,blue,left,left,yes,0.5979249477386475,2021-11-10 10:22:00,1636562607.924755,2.6166889268522007,3.3345833404844125
1,1,1,experiment,sitting,2,44,noswitch,incongruant,solid,triangle,yellow,right,right,yes,0.3742249011993408,2021-11-10 10:22:00,1636562609.64318,2.5327276928875317,5.268491878775998
1,1,1,experiment,sitting,2,45,switch,incongruant,dashed,triangle,yellow,left,left,yes,0.5816271305084229,2021-11-10 10:22:00,1636562611.5922432,2.5435239011520308,4.393942212393739
1,1,1,experiment,sitting,2,46,switch,congruant,solid,square,blue,left,left,yes,0.7412400245666504,2021-11-10 10:22:00,1636562613.6593084,2.741113005445844,4.233911330978287
1,1,1,experiment,sitting,2,47,noswitch,incongruant,solid,triangle,yellow,right,right,yes,0.4773809909820556,2021-11-10 10:22:00,1636562615.496059,2.453904729045121,4.75073075572262
1,1,1,experiment,sitting,2,48,switch,congruant,dashed,square,blue,right,right,yes,0.4952859878540039,2021-11-10 10:22:00,1636562617.328322,2.5472520578229014,5.88987022088842
1,1,1,experiment,sitting,2,49,noswitch,incongruant,dashed,triangle,blue,left,left,yes,0.8491339683532715,2021-11-10 10:22:00,1636562619.522797,2.633129712837497,4.368736448525428
1,1,1,experiment,sitting,3,1,buffer,buffer,dashed,square,blue,right,right,yes,1.1523308753967283,2021-11-10 10:22:00,1636562628.076641,2.6700412249179313,3.8144830790399804
1,1,1,experiment,sitting,3,2,switch,congruant,solid,square,yellow,right,right,yes,0.5211479663848877,2021-11-10 10:22:00,1636562629.9679573,2.572665849958378,4.980091009251499
1,1,1,experiment,sitting,3,3,noswitch,incongruant,solid,triangle,blue,left,left,yes,0.422368049621582,2021-11-10 10:22:00,1636562631.7405028,2.8042013454128027,3.431275290404128
1,1,1,experiment,sitting,3,4,switch,congruant,dashed,triangle,yellow,left,left,yes,0.584326982498169,2021-11-10 10:22:00,1636562633.6909573,2.742981756054425,4.475003299988647
1,1,1,experiment,sitting,3,5,switch,incongruant,solid,triangle,yellow,right,right,yes,0.4480719566345215,2021-11-10 10:22:00,1636562635.5287683,2.532502651431732,3.878474869136992
1,1,1,experiment,sitting,3,6,switch,incongruant,dashed,triangle,blue,left,left,yes,0.4896759986877441,2021-11-10 10:22:00,1636562637.362852,2.306368171886989,5.24607265408217
1,1,1,experiment,sitting,3,7,noswitch,congruant,dashed,triangle,yellow,left,left,yes,0.3183259963989258,2021-11-10 10:22:00,1636562639.0160596,2.8598755013100705,3.409653715412469
1,1,1,experiment,sitting,3,8,noswitch,incongruant,dashed,square,yellow,right,right,yes,0.3560400009155273,2021-11-10 10:22:00,1636562640.7306814,2.335015065623018,4.682902547892676
1,1,1,experiment,sitting,3,9,switch,congruant,solid,triangle,yellow,right,right,yes,0.5712029933929443,2021-11-10 10:22:00,1636562642.6807024,2.5603308395733566,4.878724965857585
1,1,1,experiment,sitting,3,10,switch,incongruant,dashed,triangle,yellow,left,left,yes,0.3428401947021484,2021-11-10 10:22:00,1636562644.333522,2.3110872065743533,4.544324876921817
1,1,1,experiment,sitting,3,11,switch,incongruant,solid,triangle,yellow,right,right,yes,0.7437710762023926,2021-11-10 10:22:00,1636562646.4604344,3.001343180576571,4.765169431441269
1,1,1,experiment,sitting,3,12,noswitch,incongruant,solid,square,blue,left,left,yes,0.9934778213500975,2021-11-10 10:22:00,1636562648.7652428,2.356939834180085,4.79296276529442
1,1,1,experiment,sitting,3,13,noswitch,incongruant,solid,square,yellow,right,right,yes,0.5430998802185059,2021-11-10 10:22:00,1636562650.6583335,2.5613289800441517,5.313445727956075
1,1,1,experiment,sitting,3,14,noswitch,incongruant,solid,triangle,blue,left,left,yes,0.3636999130249023,2021-11-10 10:22:00,1636562652.375248,2.7537776366767215,5.996485915679081
1,1,1,experiment,sitting,3,15,switch,congruant,dashed,triangle,blue,left,left,yes,0.5730929374694824,2021-11-10 10:22:00,1636562654.2654238,2.4038893663542886,4.304357231397906
1,1,1,experiment,sitting,3,16,noswitch,congruant,dashed,triangle,blue,left,left,yes,0.416607141494751,2021-11-10 10:22:00,1636562656.038861,2.762682435777083,4.1970441934024665
1,1,1,experiment,sitting,3,17,noswitch,congruant,dashed,triangle,blue,left,left,yes,0.4103240966796875,2021-11-10 10:22:00,1636562657.809997,2.2516287868752545,4.982934798064288
1,1,1,experiment,sitting,3,18,noswitch,incongruant,dashed,square,yellow,right,right,yes,0.4187731742858886,2021-11-10 10:22:00,1636562659.5828905,2.3418541849636543,3.5283700165532705
1,1,1,experiment,sitting,3,19,noswitch,incongruant,dashed,triangle,yellow,left,left,yes,0.8029420375823975,2021-11-10 10:22:00,1636562661.709002,2.386678415298138,4.236481246934198
1,1,1,experiment,sitting,3,20,switch,congruant,solid,triangle,blue,left,left,yes,0.5325949192047119,2021-11-10 10:22:00,1636562663.5973086,2.610863290380802,4.319846358655989
1,1,1,experiment,sitting,3,21,noswitch,incongruant,solid,triangle,yellow,right,right,yes,0.5361621379852295,2021-11-10 10:22:00,1636562665.4867191,2.6212439854583796,4.937575654447046
1,1,1,experiment,sitting,3,22,noswitch,congruant,solid,square,yellow,timeout,right,no,,2021-11-10 10:22:00,1636562668.2085323,2.796685843397981,4.19292174302409
1,1,1,experiment,sitting,3,23,switch,congruant,dashed,square,blue,right,right,yes,0.6159439086914062,2021-11-10 10:22:00,1636562675.1524577,2.962413421464363,4.399526306559243
1,1,1,experiment,sitting,3,24,noswitch,congruant,dashed,square,blue,right,right,yes,0.6686041355133057,2021-11-10 10:22:00,1636562677.1591835,2.435304132713331,4.22150697234879
1,1,1,experiment,sitting,3,25,switch,incongruant,solid,triangle,blue,left,left,yes,0.6934881210327148,2021-11-10 10:22:00,1636562679.1667492,2.5277912568154113,4.654062393795857
1,1,1,experiment,sitting,3,26,noswitch,congruant,solid,square,blue,left,left,yes,0.3939089775085449,2021-11-10 10:22:00,1636562680.87984,2.481261980535788,5.580501506738697
1,1,1,experiment,sitting,3,27,switch,incongruant,dashed,square,blue,right,right,yes,0.7610759735107422,2021-11-10 10:22:00,1636562683.0101385,2.777632281604359,5.168884269120928
1,1,1,experiment,sitting,3,28,noswitch,congruant,dashed,square,yellow,right,right,yes,0.3027629852294922,2021-11-10 10:22:00,1636562684.662191,2.7774434980127296,5.358824057584203
1,1,1,experiment,sitting,3,29,noswitch,congruant,dashed,square,yellow,right,right,yes,0.3284649848937988,2021-11-10 10:22:00,1636562686.3755474,2.6495881905641356,4.410559202214028
1,1,1,experiment,sitting,3,30,switch,incongruant,solid,square,blue,left,left,yes,0.5675868988037109,2021-11-10 10:22:00,1636562688.2651834,2.13456896940412,4.684624608477424
1,1,1,experiment,sitting,3,31,switch,incongruant,dashed,square,yellow,right,right,yes,0.6551699638366699,2021-11-10 10:22:00,1636562690.2746837,2.4081648000604603,3.746185318552695
1,1,1,experiment,sitting,3,32,noswitch,congruant,dashed,square,blue,right,right,yes,0.3833260536193847,2021-11-10 10:22:00,1636562691.987099,2.6041405005243394,5.109968611702849
1,1,1,experiment,sitting,3,33,switch,incongruant,solid,triangle,blue,left,left,yes,0.4725568294525146,2021-11-10 10:22:00,1636562693.817705,2.578353144849165,4.161456853404321
1,1,1,experiment,sitting,3,34,switch,congruant,dashed,triangle,yellow,left,left,yes,0.3410639762878418,2021-11-10 10:22:00,1636562695.4703877,2.2833741034538937,5.343235420555423
1,1,1,experiment,sitting,3,35,switch,congruant,solid,square,blue,right,left,no,0.4602811336517334,2021-11-10 10:22:00,1636562697.3050797,2.595454101017029,4.755823839706448
1,1,1,experiment,sitting,3,36,noswitch,congruant,solid,triangle,blue,timeout,left,no,,2021-11-10 10:22:00,1636562705.0814312,3.0961873299656073,4.77226820975952
1,1,1,experiment,sitting,3,37,noswitch,incongruant,solid,triangle,yellow,right,right,yes,0.5590729713439941,2021-11-10 10:22:00,1636562711.962677,3.592327773387716,5.3493796503854645
1,1,1,experiment,sitting,3,38,noswitch,congruant,solid,square,yellow,right,right,yes,0.4489071369171142,2021-11-10 10:22:00,1636562713.7932813,2.970458092781694,4.539516498228186
1,1,1,experiment,sitting,3,39,switch,incongruant,dashed,triangle,blue,left,left,yes,0.3358619213104248,2021-11-10 10:22:00,1636562715.446079,3.0633575063166014,4.861985552958087
1,1,1,experiment,sitting,3,40,switch,incongruant,solid,square,yellow,right,right,yes,0.5541808605194092,2021-11-10 10:22:00,1636562717.335319,2.5302035630623156,5.36882563027416
1,1,1,experiment,sitting,3,41,noswitch,incongruant,solid,square,blue,left,left,yes,0.4277639389038086,2021-11-10 10:22:00,1636562719.1069355,2.961801594417904,5.781355191681037
1,1,1,experiment,sitting,3,42,noswitch,incongruant,solid,square,yellow,right,right,yes,0.6361777782440186,2021-11-10 10:22:00,1636562721.1153116,3.3392202433533753,5.256806353929044
1,1,1,experiment,sitting,3,43,switch,congruant,dashed,square,blue,right,right,yes,0.8936018943786621,2021-11-10 10:22:00,1636562723.359233,3.545465178036154,6.396726043660432
1,1,1,experiment,sitting,3,44,switch,congruant,solid,triangle,yellow,right,right,yes,0.869379997253418,2021-11-10 10:22:00,1636562725.6045444,3.3147741906350143,5.440280045361921
1,1,1,experiment,sitting,3,45,switch,incongruant,dashed,triangle,blue,left,left,yes,0.4946300983428955,2021-11-10 10:22:00,1636562727.434719,3.4336270366868855,6.5931150691646385
1,1,1,experiment,sitting,3,46,noswitch,congruant,dashed,triangle,yellow,left,left,yes,0.2850341796875,2021-11-10 10:22:00,1636562729.0290694,3.0105543334094764,5.730941128569319
1,1,1,experiment,sitting,3,47,switch,congruant,solid,square,blue,left,left,yes,0.8437418937683105,2021-11-10 10:22:00,1636562731.2161894,3.575496168736103,6.89909232682169
1,1,1,experiment,sitting,3,48,switch,incongruant,dashed,square,yellow,right,right,yes,0.9607620239257812,2021-11-10 10:22:00,1636562733.5211449,3.0189462169016568,4.640605269356168
1,1,1,experiment,sitting,3,49,noswitch,congruant,dashed,square,blue,right,right,yes,0.6620080471038818,2021-11-10 10:22:00,1636562735.5289974,2.8222386132467876,4.914421749762775
1,1,1,experiment,sitting,4,1,buffer,buffer,dashed,square,yellow,right,right,yes,0.4438400268554687,2021-11-10 10:22:00,1636562742.8244607,2.771572413326212,4.869483992910015
1,1,1,experiment,sitting,4,2,noswitch,incongruant,dashed,triangle,blue,left,left,yes,0.4958229064941406,2021-11-10 10:22:00,1636562744.6561866,2.991891430121653,4.920142168364328
1,1,1,experiment,sitting,4,3,noswitch,incongruant,dashed,square,yellow,right,right,yes,0.5929200649261475,2021-11-10 10:22:00,1636562746.6077392,3.187046597585656,4.890969516692771
1,1,1,experiment,sitting,4,4,switch,congruant,solid,triangle,yellow,right,right,yes,0.7306079864501953,2021-11-10 10:22:00,1636562748.6814349,2.6290249134485872,5.087414985471765
1,1,1,experiment,sitting,4,5,switch,incongruant,dashed,triangle,yellow,left,left,yes,0.4898300170898437,2021-11-10 10:22:00,1636562750.5158296,2.9445685300376288,4.152042443917245
1,1,1,experiment,sitting,4,6,switch,incongruant,solid,square,yellow,right,right,yes,0.8130528926849365,2021-11-10 10:22:00,1636562752.7078729,2.5003321605489814,2.961189607328183
1,1,1,experiment,sitting,4,7,noswitch,congruant,solid,triangle,yellow,right,right,yes,0.3547148704528808,2021-11-10 10:22:00,1636562754.4189355,2.8766655749926757,3.3369074668453456
1,1,1,experiment,sitting,4,8,noswitch,incongruant,solid,square,blue,left,left,yes,0.4360749721527099,2021-11-10 10:22:00,1636562756.1918273,2.5293488642421886,3.2583422226276535
1,1,1,experiment,sitting,4,9,switch,congruant,dashed,triangle,blue,left,left,yes,0.3139359951019287,2021-11-10 10:22:00,1636562757.84426,2.8658122868770115,2.9901827246086867
1,1,1,experiment,sitting,4,10,switch,incongruant,solid,square,yellow,right,right,yes,0.3723821640014648,2021-11-10 10:22:00,1636562759.5617754,2.532523881511011,3.0710768228370684
1,1,1,experiment,sitting,4,11,noswitch,congruant,solid,square,yellow,right,right,yes,0.5333671569824219,2021-11-10 10:22:00,1636562761.4498384,2.8099724309081067,3.8023586067694315
1,1,1,experiment,sitting,4,12,noswitch,incongruant,solid,square,blue,left,left,yes,0.4791359901428222,2021-11-10 10:22:00,1636562763.2822032,2.8721954590674317,3.4312047362806144
1,1,1,experiment,sitting,4,13,noswitch,congruant,solid,triangle,blue,left,left,yes,0.3874869346618652,2021-11-10 10:22:00,1636562764.9939957,2.3906822123833735,3.8558006331898085
1,1,1,experiment,sitting,4,14,switch,incongruant,dashed,square,blue,right,right,yes,0.9063680171966552,2021-11-10 10:22:00,1636562767.2460525,2.6396850942127243,5.500255398155524
1,1,1,experiment,sitting,4,15,switch,congruant,solid,square,yellow,right,right,yes,0.7441821098327637,2021-11-10 10:22:00,1636562769.3725307,2.7208848981016445,6.29245383610297
1,1,1,experiment,sitting,4,16,noswitch,incongruant,solid,triangle,blue,left,left,yes,0.5383749008178711,2021-11-10 10:22:00,1636562771.2650716,3.2150681931723413,6.899802855102478
1,1,1,experiment,sitting,4,17,noswitch,congruant,solid,triangle,blue,left,left,yes,0.4223670959472656,2021-11-10 10:22:00,1636562773.0363128,2.7440205806256586,4.713469653396305
1,1,1,experiment,sitting,4,18,switch,congruant,dashed,triangle,blue,left,left,yes,0.3397798538208008,2021-11-10 10:22:00,1636562774.689488,2.1653613365645534,4.204211589342628
1,1,1,experiment,sitting,4,19,noswitch,incongruant,dashed,square,yellow,right,right,yes,0.5229740142822266,2021-11-10 10:22:00,1636562776.582033,2.625538249868187,4.454395531973042
1,1,1,experiment,sitting,4,20,switch,incongruant,solid,triangle,blue,left,left,yes,0.5688469409942627,2021-11-10 10:22:00,1636562778.4717584,2.8739563862189783,5.6750378119871945
1,1,1,experiment,sitting,4,21,switch,congruant,dashed,triangle,yellow,left,left,yes,0.8077139854431152,2021-11-10 10:22:00,1636562780.5976725,2.8993880248830863,5.417300391835718
1,1,1,experiment,sitting,4,22,switch,congruant,solid,square,blue,right,left,no,0.4417829513549804,2021-11-10 10:22:00,1636562782.432686,2.617680387315405,5.039091236035269
1,1,1,experiment,sitting,4,23,noswitch,incongruant,solid,square,yellow,right,right,yes,0.4477131366729736,2021-11-10 10:22:00,1636562789.259915,1.723455252503521,3.9039992478101073
1,1,1,experiment,sitting,4,24,switch,congruant,dashed,square,blue,right,right,yes,0.5726051330566406,2021-11-10 10:22:00,1636562791.2081094,2.608174476673221,3.499426541990772
1,1,1,experiment,sitting,4,25,switch,congruant,solid,triangle,yellow,right,right,yes,1.349052906036377,2021-11-10 10:22:00,1636562793.9263043,2.7422658176917607,4.485274422299084
1,1,1,experiment,sitting,4,26,switch,incongruant,dashed,triangle,yellow,left,left,yes,0.4832630157470703,2021-11-10 10:22:00,1636562795.7585757,2.4291837078257665,3.6729573584003323
1,1,1,experiment,sitting,4,27,noswitch,congruant,dashed,triangle,yellow,left,left,yes,0.3185791969299316,2021-11-10 10:22:00,1636562797.4113872,3.1358697314045916,3.518943793201623
1,1,1,experiment,sitting,4,28,noswitch,incongruant,dashed,square,yellow,right,right,yes,0.5434401035308838,2021-11-10 10:22:00,1636562799.3058405,2.876194710692768,5.0480762451021395
1,1,1,experiment,sitting,4,29,switch,incongruant,solid,triangle,blue,left,left,yes,0.5458638668060303,2021-11-10 10:22:00,1636562801.2010305,2.663102114299711,4.63196317049197
1,1,1,experiment,sitting,4,30,noswitch,incongruant,solid,triangle,yellow,right,right,yes,0.7095279693603516,2021-11-10 10:22:00,1636562803.2755957,2.8287794885948343,4.454838988296785
1,1,1,experiment,sitting,4,31,switch,congruant,dashed,square,yellow,right,right,yes,1.1218438148498535,2021-11-10 10:22:00,1636562805.760042,2.701522837759257,3.720335048668478
1,1,1,experiment,sitting,4,32,noswitch,congruant,dashed,square,yellow,right,right,yes,0.3279719352722168,2021-11-10 10:22:00,1636562807.4140384,2.6266261631644374,5.272519606954272
1,1,1,experiment,sitting,4,33,noswitch,congruant,dashed,square,yellow,right,right,yes,0.5029449462890625,2021-11-10 10:22:00,1636562809.245818,2.840234284554457,5.251986946906979
1,1,1,experiment,sitting,4,34,noswitch,incongruant,dashed,triangle,blue,left,left,yes,0.5813579559326172,2021-11-10 10:22:00,1636562811.1959,3.6497195254452857,5.5450134437213565
1,1,1,experiment,sitting,4,35,noswitch,congruant,dashed,triangle,blue,left,left,yes,0.3102030754089355,2021-11-10 10:22:00,1636562812.8509076,2.668505043537897,5.1834118751080025
1,1,1,experiment,sitting,4,36,switch,congruant,solid,square,blue,left,left,yes,0.5180261135101318,2021-11-10 10:22:00,1636562814.6814594,2.6375271098469146,4.952452138932161
1,1,1,experiment,sitting,4,37,noswitch,congruant,solid,square,blue,left,left,yes,0.3645901679992676,2021-11-10 10:22:00,1636562816.3936613,2.9742045873362395,5.691573207205026
1,1,1,experiment,sitting,4,38,noswitch,incongruant,solid,triangle,yellow,right,right,yes,1.0567119121551514,2021-11-10 10:22:00,1636562818.818884,3.0102076385007455,4.753736135195994
1,1,1,experiment,sitting,4,39,noswitch,incongruant,solid,square,blue,left,left,yes,0.7288150787353516,2021-11-10 10:22:00,1636562820.8924198,3.251490716374615,4.797805342068599
1,1,1,experiment,sitting,4,40,switch,congruant,dashed,triangle,yellow,left,left,yes,0.5984158515930176,2021-11-10 10:22:00,1636562822.8418152,3.3361219323171536,7.230877781369048
1,1,1,experiment,sitting,4,41,switch,incongruant,solid,square,yellow,right,right,yes,1.30987811088562,2021-11-10 10:22:00,1636562825.5048497,3.1935987156657895,6.830610814180202
1,1,1,experiment,sitting,4,42,switch,congruant,dashed,square,blue,right,right,yes,0.634443998336792,2021-11-10 10:22:00,1636562827.5134065,2.959710831634385,5.456330086916694
1,1,1,experiment,sitting,4,43,noswitch,incongruant,dashed,triangle,blue,left,left,yes,0.3693559169769287,2021-11-10 10:22:00,1636562829.2266,3.1401330564324685,4.520328343357067
1,1,1,experiment,sitting,4,44,noswitch,incongruant,dashed,square,blue,right,right,yes,0.4104619026184082,2021-11-10 10:22:00,1636562831.0012672,3.3094853016117876,6.617989728038411
1,1,1,experiment,sitting,4,45,noswitch,congruant,dashed,square,blue,right,right,yes,0.4720358848571777,2021-11-10 10:22:00,1636562832.8327312,3.1363806603973714,4.9677146630012725
1,1,1,experiment,sitting,4,46,switch,incongruant,solid,triangle,blue,left,left,yes,0.4297900199890136,2021-11-10 10:22:00,1636562834.6086736,3.1896447318238716,3.599539874242644
1,1,1,experiment,sitting,4,47,switch,congruant,dashed,triangle,yellow,left,left,yes,0.5930440425872803,2021-11-10 10:22:00,1636562836.5584855,3.1851569045471804,7.343036528243081
1,1,1,experiment,sitting,4,48,switch,incongruant,solid,triangle,yellow,right,right,yes,0.5950498580932617,2021-11-10 10:22:00,1636562838.512903,3.217936523613923,4.364979050917847
1,1,1,experiment,sitting,4,49,switch,congruant,dashed,square,blue,right,right,yes,1.0007591247558594,2021-11-10 10:22:00,1636562840.8754404,2.9635279944079183,5.4319629879814375
2,1,2,experiment,standing,1,1,buffer,buffer,solid,square,yellow,timeout,right,no,,2021-11-10 11:15:00,1636564939.1454864,1.2678875119477047,2.844830704927811
2,1,2,experiment,standing,1,2,switch,congruant,dashed,triangle,blue,timeout,right,no,,2021-11-10 11:15:00,1636564946.9198308,1.2869953151122155,2.4390770809370594
2,1,2,experiment,standing,1,3,noswitch,incongruant,dashed,square,yellow,timeout,left,no,,2021-11-10 11:15:00,1636564954.6942573,1.306288480003068,2.5764991802683967
2,1,2,experiment,standing,1,4,switch,congruant,solid,triangle,blue,right,left,no,0.904620885848999,2021-11-10 11:15:00,1636564961.9271257,1.3880482729491956,2.66862868334352
2,1,2,experiment,standing,1,5,switch,incongruant,dashed,triangle,blue,timeout,right,no,,2021-11-10 11:15:00,1636564969.6971943,1.2906896815508462,2.5001229378912075
2,1,2,experiment,standing,1,6,switch,congruant,solid,triangle,yellow,left,right,no,1.346338987350464,2021-11-10 11:15:00,1636564977.353134,1.4120260539387153,2.4799685377599543
2,1,2,experiment,standing,1,7,switch,incongruant,dashed,square,blue,left,left,yes,0.8177838325500488,2021-11-10 11:15:00,1636564984.473946,1.1857410136473336,2.8759774404478766
2,1,2,experiment,standing,1,8,noswitch,congruant,dashed,square,yellow,timeout,left,no,,2021-11-10 11:15:00,1636564987.195153,1.2360921331260293,2.2334931074993465
2,1,2,experiment,standing,1,9,noswitch,congruant,dashed,square,blue,right,left,no,1.066920042037964,2021-11-10 11:15:00,1636564994.6132772,1.2797457472423674,2.154466566806574
2,1,2,experiment,standing,1,10,noswitch,incongruant,dashed,triangle,yellow,timeout,right,no,,2021-11-10 11:15:00,1636565002.3820124,1.2023014721202876,2.5699592742149013
2,1,2,experiment,standing,1,11,noswitch,congruant,dashed,triangle,yellow,timeout,right,no,,2021-11-10 11:15:00,1636565010.1606438,1.229663983995626,2.196677819078463
2,1,2,experiment,standing,1,12,switch,congruant,solid,triangle,yellow,right,right,yes,0.6429541110992432,2021-11-10 11:15:00,1636565017.1658895,1.3895545579794069,2.0818871614317103
2,1,2,experiment,standing,1,13,switch,incongruant,dashed,square,blue,left,left,yes,0.6429860591888428,2021-11-10 11:15:00,1636565019.1780424,1.287165481759596,2.5857925995057016
2,1,2,experiment,standing,1,14,noswitch,congruant,dashed,square,blue,left,left,yes,0.6184940338134766,2021-11-10 11:15:00,1636565021.1278746,1.1595411062737226,1.9759546356629878
2,1,2,experiment,standing,1,15,noswitch,incongruant,dashed,triangle,blue,right,right,yes,0.8513619899749756,2021-11-10 11:15:00,1636565023.3177676,1.3084994869887314,2.36116703343999
2,1,2,experiment,standing,1,16,noswitch,incongruant,dashed,square,yellow,left,left,yes,0.6084859371185303,2021-11-10 11:15:00,1636565025.2724004,1.349905604554588,2.3350126189964358
2,1,2,experiment,standing,1,17,noswitch,incongruant,dashed,triangle,blue,right,right,yes,0.5875430107116699,2021-11-10 11:15:00,1636565027.2238915,1.4676715296066436,2.1890891817609917
2,1,2,experiment,standing,1,18,noswitch,congruant,dashed,triangle,yellow,left,right,no,0.9345920085906982,2021-11-10 11:15:00,1636565029.4710283,1.1438547483824866,2.553224582056644
2,1,2,experiment,standing,1,19,switch,incongruant,solid,square,blue,right,left,no,0.529958963394165,2021-11-10 11:15:00,1636565036.3540428,1.26817932565227,2.356610114884025
2,1,2,experiment,standing,1,20,noswitch,congruant,solid,square,blue,timeout,left,no,,2021-11-10 11:15:00,1636565044.1224065,1.2477515063098925,2.4968225229006036
2,1,2,experiment,standing,1,21,noswitch,incongruant,solid,square,yellow,right,right,yes,0.4103469848632812,2021-11-10 11:15:00,1636565050.8920715,1.2966947621419476,2.006023249047441
2,1,2,experiment,standing,1,22,noswitch,congruant,solid,triangle,yellow,right,right,yes,0.5963618755340576,2021-11-10 11:15:00,1636565052.843778,1.4812777379078887,2.923259471182569
2,1,2,experiment,standing,1,23,switch,congruant,dashed,triangle,yellow,left,right,no,0.9614379405975342,2021-11-10 11:15:00,1636565055.1534853,1.3057392967126515,1.9469266318641538
2,1,2,experiment,standing,1,24,switch,incongruant,solid,triangle,blue,timeout,left,no,,2021-11-10 11:15:00,1636565062.921643,1.412492863453601,2.688723773330968
2,1,2,experiment,standing,1,25,switch,congruant,dashed,square,yellow,left,left,yes,0.8860318660736084,2021-11-10 11:15:00,1636565070.166396,1.3162178424323816,2.4603946386038715
2,1,2,experiment,standing,1,26,switch,incongruant,solid,triangle,yellow,left,right,no,0.7624130249023438,2021-11-10 11:15:00,1636565072.2945452,1.241038503093335,2.1921376841911373
2,1,2,experiment,standing,1,27,noswitch,incongruant,solid,square,blue,left,left,yes,1.0722129344940186,2021-11-10 11:15:00,1636565079.7063382,1.4725853745631514,2.411977775754198
2,1,2,experiment,standing,1,28,noswitch,congruant,solid,square,blue,left,left,yes,0.5199141502380371,2021-11-10 11:15:00,1636565081.5378685,1.3452742064941101,2.492065462721722
2,1,2,experiment,standing,1,29,noswitch,congruant,solid,triangle,blue,left,left,yes,0.6095490455627441,2021-11-10 11:15:00,1636565083.4869325,1.2504359488908212,2.4085863137550874
2,1,2,experiment,standing,1,30,switch,congruant,dashed,square,yellow,left,left,yes,0.983518123626709,2021-11-10 11:15:00,1636565085.7925951,1.2905929218405938,2.752867626683344
2,1,2,experiment,standing,1,31,switch,incongruant,solid,square,yellow,right,right,yes,0.8144588470458984,2021-11-10 11:15:00,1636565087.982295,1.302162619258181,2.1839230285438296
2,1,2,experiment,standing,1,32,noswitch,incongruant,solid,triangle,blue,left,left,yes,0.3976361751556396,2021-11-10 11:15:00,1636565089.6946385,1.3152516604645208,2.204888869163155
2,1,2,experiment,standing,1,33,switch,incongruant,dashed,triangle,blue,left,right,no,0.6661450862884521,2021-11-10 11:15:00,1636565091.7046268,1.2084910445215165,2.179180168712569
2,1,2,experiment,standing,1,34,noswitch,congruant,dashed,triangle,blue,right,right,yes,0.9590790271759032,2021-11-10 11:15:00,1636565099.0061054,1.3249994665458917,2.2426566740392513
2,1,2,experiment,standing,1,35,switch,congruant,solid,square,yellow,left,right,no,0.8025538921356201,2021-11-10 11:15:00,1636565101.1333327,1.2075862444048968,1.7077397216113648
2,1,2,experiment,standing,1,36,switch,incongruant,dashed,square,blue,left,left,yes,0.6422250270843506,2021-11-10 11:15:00,1636565108.1333213,1.1602987105095623,2.7163176804619926
2,1,2,experiment,standing,1,37,switch,congruant,solid,triangle,blue,left,left,yes,0.6775619983673096,2021-11-10 11:15:00,1636565110.1449895,1.0044885458952217,2.577348762800702
2,1,2,experiment,standing,1,38,noswitch,congruant,solid,square,blue,left,left,yes,0.7376620769500732,2021-11-10 11:15:00,1636565112.2157354,1.0513116568028749,2.068516676961539
2,1,2,experiment,standing,1,39,noswitch,incongruant,solid,square,yellow,right,right,yes,0.8133609294891357,2021-11-10 11:15:00,1636565114.4034922,1.0943832821442487,2.3322787896148234
2,1,2,experiment,standing,1,40,switch,incongruant,dashed,square,yellow,right,left,no,1.0413479804992676,2021-11-10 11:15:00,1636565116.828329,1.108659602527264,2.152301823908913
2,1,2,experiment,standing,1,41,switch,incongruant,solid,triangle,yellow,left,right,no,0.8695991039276123,2021-11-10 11:15:00,1636565124.004422,1.2373204538257048,2.057485019876222
2,1,2,experiment,standing,1,42,noswitch,incongruant,solid,square,blue,left,left,yes,0.6207830905914307,2021-11-10 11:15:00,1636565130.9427342,1.1398745541287603,2.2447232334376928
2,1,2,experiment,standing,1,43,switch,incongruant,dashed,triangle,yellow,right,right,yes,0.7172560691833496,2021-11-10 11:15:00,1636565133.0147655,1.051902734243519,2.966315342394572
2,1,2,experiment,standing,1,44,switch,congruant,solid,square,yellow,right,right,yes,0.8871378898620605,2021-11-10 11:15:00,1636565135.2588568,1.1548300719470437,2.2082678194540835
2,1,2,experiment,standing,1,45,switch,congruant,dashed,triangle,yellow,right,right,yes,0.9471709728240968,2021-11-10 11:15:00,1636565137.5636346,1.3126935185173103,2.4678102346576605
2,1,2,experiment,standing,1,46,noswitch,incongruant,dashed,square,blue,left,left,yes,0.4830148220062256,2021-11-10 11:15:00,1636565139.397338,1.2421693316230265,2.1764997720722032
2,1,2,experiment,standing,1,47,switch,congruant,solid,triangle,blue,left,left,yes,1.2317421436309814,2021-11-10 11:15:00,1636565141.9403346,1.2683098564931277,2.469071108028761
2,1,2,experiment,standing,1,48,noswitch,incongruant,solid,square,yellow,right,right,yes,0.3887929916381836,2021-11-10 11:15:00,1636565143.714828,1.083636752547048,2.041055300137923
2,1,2,experiment,standing,1,49,noswitch,congruant,solid,triangle,yellow,right,right,yes,0.6258671283721924,2021-11-10 11:15:00,1636565145.7246487,1.1100419791043872,2.09916392606238
2,1,2,experiment,standing,2,1,buffer,buffer,dashed,triangle,yellow,right,right,yes,0.846243143081665,2021-11-10 11:15:00,1636565152.3771014,1.121912574665152,2.5133936208003544
2,1,2,experiment,standing,2,2,switch,congruant,solid,square,yellow,right,right,yes,0.5054099559783936,2021-11-10 11:15:00,1636565154.2113702,1.3122708949434194,2.049200190372799
2,1,2,experiment,standing,2,3,switch,congruant,dashed,triangle,yellow,right,right,yes,0.4535260200500488,2021-11-10 11:15:00,1636565156.04326,1.2124356871561792,2.0198026925018353
2,1,2,experiment,standing,2,4,switch,incongruant,solid,square,blue,left,left,yes,0.3694450855255127,2021-11-10 11:15:00,1636565157.7572703,1.243448847918861,2.0608983546311803
2,1,2,experiment,standing,2,5,switch,congruant,dashed,square,blue,left,left,yes,0.325423002243042,2021-11-10 11:15:00,1636565159.412073,1.3288798602135963,3.1307770124184406
2,1,2,experiment,standing,2,6,switch,incongruant,solid,square,yellow,right,right,yes,0.512192964553833,2021-11-10 11:15:00,1636565161.3040576,1.1807859685586892,2.162576610922998
2,1,2,experiment,standing,2,7,switch,congruant,dashed,triangle,yellow,right,right,yes,0.5458040237426758,2021-11-10 11:15:00,1636565163.194147,1.1632093514437725,2.1951497340968142
2,1,2,experiment,standing,2,8,noswitch,congruant,dashed,triangle,blue,left,right,no,0.5764400959014893,2021-11-10 11:15:00,1636565165.086763,1.1043586346168093,2.070992662918331
2,1,2,experiment,standing,2,9,noswitch,incongruant,dashed,square,blue,left,left,yes,0.9927451610565186,2021-11-10 11:15:00,1636565172.3811293,1.1686903229847627,2.1908640640307024
2,1,2,experiment,standing,2,10,switch,incongruant,solid,square,yellow,right,right,yes,0.4256660938262939,2021-11-10 11:15:00,1636565174.156783,1.350866603450614,1.9726648396860003
2,1,2,experiment,standing,2,11,noswitch,incongruant,solid,triangle,blue,left,left,yes,1.138735055923462,2021-11-10 11:15:00,1636565176.6399767,1.2745148963937265,2.3558893510986687
2,1,2,experiment,standing,2,12,switch,incongruant,dashed,triangle,yellow,right,right,yes,0.3065757751464844,2021-11-10 11:15:00,1636565178.295187,1.110054733041953,2.103445661603429
2,1,2,experiment,standing,2,13,switch,incongruant,solid,triangle,blue,left,left,yes,0.4903700351715088,2021-11-10 11:15:00,1636565180.1301074,1.288632936782676,2.499711541068095
2,1,2,experiment,standing,2,14,noswitch,congruant,solid,square,blue,left,left,yes,0.4572389125823974,2021-11-10 11:15:00,1636565181.9029944,1.191427351833076,2.4602025719538467
2,1,2,experiment,standing,2,15,noswitch,incongruant,solid,triangle,yellow,right,right,yes,0.5166418552398682,2021-11-10 11:15:00,1636565183.798309,1.2706264496045394,2.732428703361568
2,1,2,experiment,standing,2,16,switch,congruant,dashed,triangle,blue,left,right,no,0.3608739376068115,2021-11-10 11:15:00,1636565185.51459,1.1349439377516322,1.9118188790697705
2,1,2,experiment,standing,2,17,noswitch,incongruant,dashed,square,yellow,right,left,no,0.9368760585784912,2021-11-10 11:15:00,1636565192.808027,1.18158471019219,2.4597234598226425
2,1,2,experiment,standing,2,18,noswitch,congruant,dashed,square,blue,left,left,yes,0.8997218608856201,2021-11-10 11:15:00,1636565200.0538478,1.2267499548847396,2.163197054343662
2,1,2,experiment,standing,2,19,noswitch,congruant,dashed,square,blue,left,left,yes,0.4986939430236816,2021-11-10 11:15:00,1636565201.8847969,1.038487035835973,2.0061440759786584
2,1,2,experiment,standing,2,20,switch,incongruant,solid,triangle,yellow,right,right,yes,1.146845817565918,2021-11-10 11:15:00,1636565204.36861,1.1547831881632626,2.063975881514914
2,1,2,experiment,standing,2,21,switch,incongruant,dashed,square,yellow,left,left,yes,0.7349591255187988,2021-11-10 11:15:00,1636565206.4390578,1.37048131442563,2.349339843481653
2,1,2,experiment,standing,2,22,switch,congruant,solid,square,blue,left,left,yes,0.7367730140686035,2021-11-10 11:15:00,1636565208.510474,1.391630432541644,2.243745070659601
2,1,2,experiment,standing,2,23,noswitch,congruant,solid,square,blue,left,left,yes,0.724714994430542,2021-11-10 11:15:00,1636565210.5803175,1.1807015476847489,2.228264493701525
2,1,2,experiment,standing,2,24,switch,congruant,dashed,square,blue,left,left,yes,0.5734291076660156,2021-11-10 11:15:00,1636565212.4721036,1.2280225270833371,1.9555802795567419
2,1,2,experiment,standing,2,25,noswitch,congruant,dashed,square,yellow,right,left,no,0.6179990768432617,2021-11-10 11:15:00,1636565214.4229517,1.2382273800527688,2.416406693262673
2,1,2,experiment,standing,2,26,switch,congruant,solid,square,blue,left,left,yes,0.524176836013794,2021-11-10 11:15:00,1636565221.3057983,1.2983338125381627,1.91679709758076
2,1,2,experiment,standing,2,27,noswitch,incongruant,solid,triangle,yellow,right,right,yes,0.5147590637207031,2021-11-10 11:15:00,1636565223.2001784,1.0319679831480704,1.797024749683598
2,1,2,experiment,standing,2,28,noswitch,incongruant,solid,triangle,blue,right,left,no,0.4750361442565918,2021-11-10 11:15:00,1636565225.0319338,1.2354867599584187,2.2543679256685127
2,1,2,experiment,standing,2,29,switch,incongruant,dashed,triangle,yellow,left,right,no,0.6657149791717529,2021-11-10 11:15:00,1636565232.032376,1.1243342845328679,2.3743647798026
2,1,2,experiment,standing,2,30,switch,congruant,solid,triangle,yellow,right,right,yes,0.5762419700622559,2021-11-10 11:15:00,1636565238.980082,1.2696931809959666,1.951915383928704
2,1,2,experiment,standing,2,31,noswitch,congruant,solid,square,yellow,timeout,right,no,,2021-11-10 11:15:00,1636565241.7023623,1.2820714516483243,2.22206402885169
2,1,2,experiment,standing,2,32,switch,incongruant,dashed,square,yellow,right,left,no,0.7878439426422119,2021-11-10 11:15:00,1636565248.834231,1.154979113778924,1.9609303198675248
2,1,2,experiment,standing,2,33,noswitch,incongruant,dashed,triangle,blue,left,right,no,0.9134249687194824,2021-11-10 11:15:00,1636565256.0738971,1.3286071036726326,2.086104392604465
2,1,2,experiment,standing,2,34,noswitch,incongruant,dashed,square,blue,left,left,yes,0.5744948387145996,2021-11-10 11:15:00,1636565262.956245,1.1728267920125535,2.460889505245596
2,1,2,experiment,standing,2,35,noswitch,congruant,dashed,square,yellow,right,left,no,0.7034380435943604,2021-11-10 11:15:00,1636565265.02903,1.052551501262691,1.9594741087127396
2,1,2,experiment,standing,2,36,switch,incongruant,solid,triangle,yellow,right,right,yes,0.5700850486755371,2021-11-10 11:15:00,1636565271.9705615,1.2852907357303835,1.9940851619071882
2,1,2,experiment,standing,2,37,switch,congruant,dashed,triangle,blue,right,right,yes,0.436478853225708,2021-11-10 11:15:00,1636565273.7428577,1.1875087142069491,2.18656097858331
2,1,2,experiment,standing,2,38,noswitch,congruant,dashed,triangle,blue,right,right,yes,0.4525191783905029,2021-11-10 11:15:00,1636565275.575359,1.2105723481252388,1.9456926049391978
2,1,2,experiment,standing,2,39,switch,congruant,solid,triangle,yellow,right,right,yes,0.4364759922027588,2021-11-10 11:15:00,1636565277.3478272,1.180876018326963,1.82179396696661
2,1,2,experiment,standing,2,40,switch,congruant,dashed,triangle,yellow,right,right,yes,0.4678349494934082,2021-11-10 11:15:00,1636565279.1803038,1.102666004433848,1.6537960461119325
2,1,2,experiment,standing,2,41,noswitch,incongruant,dashed,square,yellow,left,left,yes,0.6344621181488037,2021-11-10 11:15:00,1636565281.131192,1.2564597753323061,2.190640945716608
2,1,2,experiment,standing,2,42,switch,congruant,solid,square,blue,left,left,yes,0.6575319766998291,2021-11-10 11:15:00,1636565283.14239,1.4159198582248287,2.2129855869453663
2,1,2,experiment,standing,2,43,noswitch,congruant,solid,triangle,blue,right,left,no,0.9821298122406006,2021-11-10 11:15:00,1636565285.5094612,1.1546258773193947,2.4108012827430167
2,1,2,experiment,standing,2,44,noswitch,incongruant,solid,square,yellow,left,right,no,0.8549709320068359,2021-11-10 11:15:00,1636565292.6854026,1.249484856332156,2.351282645273509
2,1,2,experiment,standing,2,45,noswitch,incongruant,solid,triangle,blue,right,left,no,0.677819013595581,2021-11-10 11:15:00,1636565299.6824582,0.9338064464458344,2.353741213832945
2,1,2,experiment,standing,2,46,noswitch,incongruant,solid,square,yellow,left,right,no,0.6295650005340576,2021-11-10 11:15:00,1636565306.6235762,1.2540313576881077,1.6646029146444856
2,1,2,experiment,standing,2,47,noswitch,incongruant,solid,triangle,blue,right,left,no,0.726733922958374,2021-11-10 11:15:00,1636565313.6851811,1.116089430046904,2.0331728979101436
2,1,2,experiment,standing,2,48,switch,incongruant,dashed,triangle,yellow,right,right,yes,1.2491140365600586,2021-11-10 11:15:00,1636565321.2752132,1.136981885440683,2.2892892743810385
2,1,2,experiment,standing,2,49,noswitch,congruant,dashed,triangle,blue,left,right,no,0.6035928726196289,2021-11-10 11:15:00,1636565323.2298722,1.299718966799715,1.9130978532716294
2,1,2,experiment,standing,3,1,buffer,buffer,dashed,square,yellow,right,left,no,0.9117679595947266,2021-11-10 11:15:00,1636565347.7132952,1.2412407153450216,2.2560639544577774
2,1,2,experiment,standing,3,2,noswitch,congruant,dashed,square,blue,left,left,yes,0.8078689575195312,2021-11-10 11:15:00,1636565354.8335092,1.4848273817017859,2.540364192408723
2,1,2,experiment,standing,3,3,switch,congruant,solid,square,blue,right,left,no,0.9372599124908448,2021-11-10 11:15:00,1636565357.139046,1.2021001752676066,2.430694202096517
2,1,2,experiment,standing,3,4,switch,congruant,dashed,square,yellow,right,left,no,1.0746991634368896,2021-11-10 11:15:00,1636565364.5548763,1.081322021207869,2.7725320114088605
2,1,2,experiment,standing,3,5,noswitch,incongruant,dashed,triangle,yellow,right,right,yes,0.8780100345611572,2021-11-10 11:15:00,1636565371.791464,1.0523459718565886,2.27319088270514
2,1,2,experiment,standing,3,6,switch,congruant,solid,square,yellow,left,right,no,0.8277668952941895,2021-11-10 11:15:00,1636565373.979144,1.099427302559382,2.476665381926387
2,1,2,experiment,standing,3,7,noswitch,incongruant,solid,triangle,blue,left,left,yes,0.7158980369567871,2021-11-10 11:15:00,1636565381.0355043,1.220765860169503,1.8668461994050762
2,1,2,experiment,standing,3,8,noswitch,incongruant,solid,triangle,yellow,right,right,yes,0.5660579204559326,2021-11-10 11:15:00,1636565382.9854052,0.9381987014154938,2.4343356673369043
2,1,2,experiment,standing,3,9,switch,incongruant,dashed,square,yellow,timeout,left,no,,2021-11-10 11:15:00,1636565385.7046747,1.0581993399823444,2.126847147225526
2,1,2,experiment,standing,3,10,switch,incongruant,solid,triangle,yellow,right,right,yes,0.7194721698760986,2021-11-10 11:15:00,1636565392.7811265,1.0962889412850034,2.0951703000439665
2,1,2,experiment,standing,3,11,noswitch,congruant,solid,triangle,yellow,right,right,yes,0.5099539756774902,2021-11-10 11:15:00,1636565394.670426,1.0591729575794864,2.1908330623197876
2,1,2,experiment,standing,3,12,switch,incongruant,dashed,square,blue,left,left,yes,0.8967468738555908,2021-11-10 11:15:00,1636565396.9220114,0.9602374060726319,2.043429186967465
2,1,2,experiment,standing,3,13,noswitch,congruant,dashed,square,blue,left,left,yes,0.480910062789917,2021-11-10 11:15:00,1636565398.7533078,1.1497705658436428,2.846693559685436
2,1,2,experiment,standing,3,14,switch,incongruant,solid,square,yellow,right,right,yes,0.6784260272979736,2021-11-10 11:15:00,1636565400.7634833,1.0863520443818935,2.0097025511394224
2,1,2,experiment,standing,3,15,noswitch,incongruant,solid,square,blue,left,left,yes,0.659005880355835,2021-11-10 11:15:00,1636565402.7792242,1.1756060327818771,2.209911781199574
2,1,2,experiment,standing,3,16,noswitch,congruant,solid,triangle,blue,timeout,left,no,,2021-11-10 11:15:00,1636565405.4988766,1.111269201031948,2.984668268088254
2,1,2,experiment,standing,3,17,noswitch,congruant,solid,triangle,blue,left,left,yes,1.3020670413970947,2021-11-10 11:15:00,1636565413.1586046,1.2228589248586121,1.741186208599239
2,1,2,experiment,standing,3,18,noswitch,incongruant,solid,square,yellow,right,right,yes,0.6244077682495117,2021-11-10 11:15:00,1636565415.1717317,1.2244703930418683,2.0853892555092792
2,1,2,experiment,standing,3,19,switch,congruant,dashed,triangle,blue,left,right,no,1.2076380252838137,2021-11-10 11:15:00,1636565417.7146995,1.1128931730254215,1.7005597933823728
2,1,2,experiment,standing,3,20,noswitch,congruant,dashed,triangle,yellow,right,right,yes,0.5431439876556396,2021-11-10 11:15:00,1636565424.594488,1.0033665085054215,2.0126513084229214
2,1,2,experiment,standing,3,21,noswitch,congruant,dashed,triangle,yellow,right,right,yes,0.4302811622619629,2021-11-10 11:15:00,1636565426.368529,1.1479850340931312,1.7361222993236765
2,1,2,experiment,standing,3,22,switch,incongruant,solid,square,blue,left,left,yes,0.6191771030426025,2021-11-10 11:15:00,1636565428.317335,1.3181564846117755,1.856792052603285
2,1,2,experiment,standing,3,23,noswitch,incongruant,solid,square,yellow,right,right,yes,0.6978960037231445,2021-11-10 11:15:00,1636565430.3913648,1.1774538276391915,1.958222297463179
2,1,2,experiment,standing,3,24,switch,incongruant,dashed,square,yellow,right,left,no,1.1085610389709473,2021-11-10 11:15:00,1636565432.8748562,1.235756233830281,2.0713399758816515
2,1,2,experiment,standing,3,25,switch,incongruant,solid,triangle,yellow,left,right,no,0.7716069221496582,2021-11-10 11:15:00,1636565439.9983003,1.1485391332804016,2.5304594620773226
2,1,2,experiment,standing,3,26,noswitch,incongruant,solid,triangle,blue,right,left,no,0.8350889682769775,2021-11-10 11:15:00,1636565447.1772168,1.3369658374207396,2.3852418086213114
2,1,2,experiment,standing,3,27,switch,congruant,dashed,square,blue,left,left,yes,0.7885808944702148,2021-11-10 11:15:00,1636565454.3038762,1.1627007258127942,2.3040821211036002
2,1,2,experiment,standing,3,28,noswitch,congruant,dashed,square,blue,left,left,yes,0.5098848342895508,2021-11-10 11:15:00,1636565456.1374576,1.3841257910033582,2.287541091176694
2,1,2,experiment,standing,3,29,switch,congruant,solid,triangle,blue,right,left,no,0.6257729530334473,2021-11-10 11:15:00,1636565458.148117,1.3241896634542314,1.622820763259873
2,1,2,experiment,standing,3,30,switch,incongruant,dashed,triangle,blue,right,right,yes,0.7864458560943604,2021-11-10 11:15:00,1636565465.27057,1.4040340913195386,2.145426405176426
2,1,2,experiment,standing,3,31,switch,congruant,solid,square,yellow,right,right,yes,1.0284299850463867,2021-11-10 11:15:00,1636565467.6357398,1.2827714229743787,2.532635065072578
2,1,2,experiment,standing,3,32,switch,congruant,dashed,triangle,blue,left,right,no,0.7542719841003418,2021-11-10 11:15:00,1636565469.706055,1.2062796345192865,1.941829785797578
2,1,2,experiment,standing,3,33,noswitch,congruant,dashed,triangle,blue,right,right,yes,0.7314951419830322,2021-11-10 11:15:00,1636565476.7603178,0.9508951639869345,1.8526957876266117
2,1,2,experiment,standing,3,34,noswitch,congruant,dashed,triangle,yellow,timeout,right,no,,2021-11-10 11:15:00,1636565479.481754,1.0911418122172947,2.0587595108126666
2,1,2,experiment,standing,3,35,noswitch,incongruant,dashed,square,blue,right,left,no,0.8785619735717773,2021-11-10 11:15:00,1636565486.7272477,1.1324356260486734,2.5252526589515294
2,1,2,experiment,standing,3,36,noswitch,incongruant,dashed,triangle,yellow,right,right,yes,0.6523621082305908,2021-11-10 11:15:00,1636565493.725587,0.9924018291566549,1.6695409959543654
2,1,2,experiment,standing,3,37,noswitch,incongruant,dashed,square,yellow,right,left,no,0.9100668430328368,2021-11-10 11:15:00,1636565495.9723475,1.0023534655463724,2.1419467238729184
2,1,2,experiment,standing,3,38,noswitch,congruant,dashed,square,yellow,left,left,yes,0.8743560314178467,2021-11-10 11:15:00,1636565503.1535327,0.9342605842785349,2.409315457256192
2,1,2,experiment,standing,3,39,switch,incongruant,solid,triangle,yellow,right,right,yes,0.7253909111022949,2021-11-10 11:15:00,1636565505.2231836,0.8756739298578765,2.57104535582583
2,1,2,experiment,standing,3,40,switch,congruant,dashed,triangle,blue,timeout,right,no,,2021-11-10 11:15:00,1636565507.9439604,1.0193039673606028,2.0083152586852306
2,1,2,experiment,standing,3,41,switch,congruant,solid,triangle,yellow,right,right,yes,0.6046891212463379,2021-11-10 11:15:00,1636565514.8876572,0.987335784653927,1.9194370836000962
2,1,2,experiment,standing,3,42,noswitch,incongruant,solid,square,blue,left,left,yes,0.6764800548553467,2021-11-10 11:15:00,1636565516.8974698,1.1250643675864416,2.2312954212419385
2,1,2,experiment,standing,3,43,switch,incongruant,dashed,triangle,yellow,left,right,no,0.957927942276001,2021-11-10 11:15:00,1636565519.2051315,1.0867185301940583,2.660328571741087
2,1,2,experiment,standing,3,44,switch,congruant,solid,square,yellow,left,right,no,0.924718141555786,2021-11-10 11:15:00,1636565526.445596,1.2016537744395779,1.9050614198250801
2,1,2,experiment,standing,3,45,noswitch,incongruant,solid,square,blue,right,left,no,1.0339038372039795,2021-11-10 11:15:00,1636565533.863535,1.0305508937590535,1.901037760081416
2,1,2,experiment,standing,3,46,noswitch,congruant,solid,triangle,blue,left,left,yes,0.5582208633422852,2021-11-10 11:15:00,1636565540.7444172,1.2111725268036622,1.652244820560852
2,1,2,experiment,standing,3,47,switch,incongruant,dashed,triangle,blue,left,right,no,0.8193008899688721,2021-11-10 11:15:00,1636565542.872799,1.210833725330668,1.792416546378547
2,1,2,experiment,standing,3,48,switch,incongruant,solid,square,blue,left,left,yes,1.4287660121917725,2021-11-10 11:15:00,1636565550.6447809,1.1831141893856953,3.6152312582644797
2,1,2,experiment,standing,3,49,switch,congruant,dashed,square,yellow,left,left,yes,0.7936251163482666,2021-11-10 11:15:00,1636565552.7743754,1.3433878817454703,3.203454683142154
2,1,2,experiment,standing,4,1,buffer,buffer,solid,square,blue,left,left,yes,0.6396949291229248,2021-11-10 11:15:00,1636565571.275736,1.3559516471752333,3.5718961119498056
2,1,2,experiment,standing,4,2,switch,incongruant,dashed,triangle,yellow,right,right,yes,0.8558809757232666,2021-11-10 11:15:00,1636565573.4638855,1.2094070924337852,3.373608917177898
2,1,2,experiment,standing,4,3,switch,incongruant,solid,triangle,blue,left,left,yes,0.8479609489440918,2021-11-10 11:15:00,1636565575.6600268,1.4750533716654817,4.16853016907614
2,1,2,experiment,standing,4,4,noswitch,congruant,solid,square,blue,timeout,left,no,,2021-11-10 11:15:00,1636565578.4169817,1.2996605982090044,3.8042683533464055
2,1,2,experiment,standing,4,5,switch,incongruant,dashed,triangle,blue,right,right,yes,0.6772370338439941,2021-11-10 11:15:00,1636565585.4238992,1.1319661375864765,3.371000534381692
2,1,2,experiment,standing,4,6,switch,congruant,solid,square,yellow,right,right,yes,1.002938985824585,2021-11-10 11:15:00,1636565587.7895677,1.1638895164432819,3.6752924543582424
2,1,2,experiment,standing,4,7,noswitch,incongruant,solid,square,blue,left,left,yes,0.6611130237579346,2021-11-10 11:15:00,1636565589.8038154,1.1725848453205847,3.5684401448087675
2,1,2,experiment,standing,4,8,switch,congruant,dashed,square,yellow,right,left,no,0.6426308155059814,2021-11-10 11:15:00,1636565591.815619,1.3743542253964485,4.320075057362005
2,1,2,experiment,standing,4,9,noswitch,congruant,dashed,square,yellow,left,left,yes,1.2430188655853271,2021-11-10 11:15:00,1636565599.407601,1.1660493212481167,4.015616297329814
2,1,2,experiment,standing,4,10,switch,incongruant,solid,triangle,yellow,right,right,yes,0.986638069152832,2021-11-10 11:15:00,1636565601.77346,1.2874793650143503,3.0208544457462203
2,1,2,experiment,standing,4,11,switch,congruant,dashed,triangle,blue,right,right,yes,0.964573860168457,2021-11-10 11:15:00,1636565604.0784893,1.2306772274043685,3.6775756041917846
2,1,2,experiment,standing,4,12,switch,congruant,solid,triangle,yellow,left,right,no,0.8126058578491211,2021-11-10 11:15:00,1636565606.2126894,1.1886923225512656,3.3910188622994375
2,1,2,experiment,standing,4,13,switch,congruant,dashed,triangle,yellow,right,right,yes,0.7890589237213135,2021-11-10 11:15:00,1636565613.336809,1.3644305876799514,4.701686681978444
2,1,2,experiment,standing,4,14,noswitch,congruant,dashed,triangle,blue,right,right,yes,0.6729521751403809,2021-11-10 11:15:00,1636565615.3467228,1.1882238139759516,4.097987436568894
2,1,2,experiment,standing,4,15,noswitch,incongruant,dashed,square,yellow,left,left,yes,0.4826359748840332,2021-11-10 11:15:00,1636565617.1813345,1.231351956871545,4.142392749306832
2,1,2,experiment,standing,4,16,noswitch,incongruant,dashed,triangle,blue,right,right,yes,0.3555300235748291,2021-11-10 11:15:00,1636565618.8980632,1.287564770153837,4.80766534995343
2,1,2,experiment,standing,4,17,switch,incongruant,solid,triangle,blue,right,left,no,0.772068977355957,2021-11-10 11:15:00,1636565621.027011,1.200924669769475,3.8454889460319865
2,1,2,experiment,standing,4,18,switch,congruant,dashed,square,blue,left,left,yes,0.8721628189086914,2021-11-10 11:15:00,1636565628.2035024,1.2387963748548616,4.150216384301492
2,1,2,experiment,standing,4,19,noswitch,incongruant,dashed,triangle,yellow,right,right,yes,0.5950078964233398,2021-11-10 11:15:00,1636565630.157417,1.0951383100571852,3.7049235802650595
2,1,2,experiment,standing,4,20,switch,congruant,solid,square,yellow,left,right,no,0.7704770565032959,2021-11-10 11:15:00,1636565632.2885787,1.2072939769261504,3.9207219658484744
